Time (s)	Acceleration x (m/s^2)	Acceleration y (m/s^2)	Acceleration z (m/s^2)	Absolute acceleration (m/s^2)
0.012843125	-2.831062775	5.410049744	7.25331665	9.481252928
0.022834125	-2.429298248	5.243895264	7.202123108	9.234202985
0.032825125	-2.24652832	4.937632141	7.09779007	8.933404979
0.042816125	-2.468516693	4.685706024	7.172933807	8.916299401
0.052806125	-2.77313324	4.461322632	7.431745605	9.100797236
0.062797125	-2.779569855	4.210594025	7.987689514	9.447660789
0.072788125	-2.634371796	4.013154602	8.582402802	9.833766443
0.082779125	-2.435884552	3.93501709	9.063652039	10.17682079
0.092770125	-2.264790344	3.929777985	9.286089478	10.33459666
0.102761125	-2.219584351	3.947291565	9.169781342	10.22705017
0.112751125	-2.237996063	3.99698822	8.863967285	9.977697993
0.122742125	-2.415676575	4.080514526	8.578061829	9.801491562
0.132733125	-2.552941132	4.188140717	8.361911316	9.694307192
0.142724125	-2.319576416	4.231849823	8.173902283	9.492189747
0.152715125	-1.880689087	4.302652588	8.06073761	9.32873526
0.162706125	-1.794169006	4.303999786	8.16956131	9.40665661
0.172697125	-1.880090332	4.251908112	8.517737274	9.703881209
0.182687125	-1.816772003	4.214036865	8.946894836	10.05513274
0.192678125	-1.667083282	4.088448029	9.246871033	10.24691162
0.202669125	-1.611698456	3.961062927	9.314230957	10.24902384
0.212660125	-1.67561554	3.922443237	9.178912354	10.12154536
0.222651125	-1.826801147	3.949387207	8.909921722	9.915723213
0.232642125	-1.995350647	3.990701294	8.629704437	9.714881353
0.242632125	-1.988614655	4.00986145	8.486152954	9.594184127
0.252623125	-1.759291534	4.03680542	8.795709229	9.836432561
0.262614125	-1.406774597	3.947291565	9.22142395	10.12890839
0.272605125	-1.215472412	3.89175705	9.468110962	10.30865031
0.282596125	-1.168619843	3.86601059	9.499695282	10.32259273
0.292587125	-1.259480896	3.816164246	9.422306213	10.24349823
0.302578125	-1.358125763	3.835773468	9.436975708	10.2768757
0.312568125	-1.365161133	3.883075104	9.58651474	10.43279455
0.322559125	-1.340013428	3.900588684	9.70940918	10.5490689
0.332550125	-1.268761597	3.908222809	9.733359375	10.56514298
0.342541125	-1.140178986	3.909869385	9.62049408	10.44705667
0.352532125	-1.053509216	3.915407867	9.400301971	10.23747906
0.362523125	-1.063388672	3.921395416	9.130113831	9.993353593
0.372513125	-1.120270386	3.93381958	8.970845032	9.859310463
0.382504125	-1.080303497	3.983216858	8.989705811	9.891808871
0.392495125	-0.908909912	4.029171295	9.167835388	10.05532417
0.402486125	-0.754580841	3.963008881	9.268426208	10.10834091
0.412477125	-0.665516052	3.948339386	9.201665039	10.0350852
0.422468125	-0.638123016	3.934118958	8.9991362	9.842202259
0.432459125	-0.741707611	3.915856934	8.762029266	9.625862173
0.442449125	-0.906514893	3.883075104	8.717721405	9.586381382
0.452440125	-1.00740509	3.854484558	8.763226776	9.626321195
0.462431125	-1.049018555	3.828139343	8.700956268	9.56356266
0.472422125	-1.004860382	3.828139343	8.689579926	9.548465557
0.482413125	-0.87283493	3.951782227	8.859177246	9.739786705
0.492404125	-0.642164612	4.031865692	8.96515686	9.85100776
0.502395125	-0.472866669	4.030219116	9.018895111	9.889728916
0.512385125	-0.403111725	3.997886353	9.02024231	9.874733701
0.522376125	-0.418679352	4.012855225	9.091943207	9.946945799
0.532367125	-0.479153595	3.977229309	9.18400177	10.01967213
0.542358125	-0.571960602	3.889661407	9.208251343	10.01241717
0.552349125	-0.653690643	3.792513428	9.142687683	9.919637475
0.562340125	-0.699944458	3.823948059	9.036408691	9.837132867
0.572330125	-0.706231384	3.850143585	8.89151001	9.71500482
0.582321125	-0.676143951	3.892056427	8.699758759	9.554636379
0.592312125	-0.675545197	3.995491333	8.56848175	9.478353856
0.602303125	-0.67509613	4.086651764	8.483907623	9.441036277
0.612294125	-0.637374573	4.126319275	8.427175598	9.404788443
0.62228525	-0.638572083	4.107458496	8.405470734	9.377149239
0.63227625	-0.596808929	4.076323242	8.441845093	9.3934733
0.64226625	-0.540975037	4.001927948	8.502469025	9.412760531
0.65225725	-0.518222351	3.932023315	8.576265564	9.448899025
0.66224825	-0.512983246	3.89984024	8.689280548	9.538107892
0.67223925	-0.570463715	3.90687561	8.757987671	9.606844119
0.68223025	-0.65878006	3.918850708	8.802145844	9.657595637
0.69222125	-0.7020401	3.955973511	8.860524445	9.728899226
0.70221125	-0.660127258	4.009262695	8.945098572	9.824700699
0.71220225	-0.559985504	4.058809662	8.997789001	9.886744993
0.72219325	-0.395627289	4.098926239	8.956624603	9.857932925
0.73218425	-0.291743317	4.090393982	8.835825806	9.741060248
0.74217525	-0.373772736	4.074826355	8.710386658	9.623655834
0.75216625	-0.505199432	4.082610168	8.613837433	9.545738713
0.76215725	-0.518970795	4.087250519	8.622669067	9.556430784
0.77214725	-0.491128693	4.121379547	8.64572113	9.590384279
0.78213825	-0.453556824	4.171974335	8.693022766	9.652964749
0.79212925	-0.432301025	4.270170135	8.778495026	9.77155116
0.80212025	-0.344134369	4.392765198	8.811576233	9.851836897
0.81211125	-0.254171448	4.449946289	8.830437012	9.89157434
0.82210225	-0.261057129	4.442312164	8.804989929	9.865603674
0.83209325	-0.317639465	4.437522125	8.761131134	9.825981691
0.84208325	-0.337697754	4.430037689	8.742569733	9.806722145
0.85207425	-0.332009583	4.451293488	8.721014557	9.796955597
0.86206525	-0.315693512	4.464017029	8.732241211	9.812193791
0.87205625	-0.293240204	4.475243683	8.795858917	9.873243131
0.88204725	-0.257015533	4.465813293	8.894354095	9.955856574
0.89203825	-0.236807556	4.449197845	9.013506317	10.05458778
0.90202825	-0.208815765	4.445755005	9.112151184	10.14098816
0.91201925	-0.113913116	4.400399323	9.188342743	10.18833317
0.92201025	0.035775604	4.330943756	9.204658813	10.17271338
0.93200125	0.276325378	4.307592316	9.224268036	10.18424411
0.94199225	0.418978729	4.314927063	9.390572205	10.3429679
0.95198325	0.547711029	4.348457336	9.718091125	10.66069246
0.96197425	0.619711304	4.317022705	10.02240829	10.93020563
0.97196425	0.567619629	4.243675232	10.22164398	11.08210166
0.98195525	0.277971954	4.08365799	10.1206041	10.91696653
0.99194625	-0.184266815	3.854035492	9.888137512	10.61427375
1.00193725	-0.551752625	3.655697937	9.622889099	10.30866398
1.01192825	-0.695902863	3.46813797	9.362879791	10.00878513
1.02191925	-0.612376556	3.364553375	9.288783875	9.898319571
1.03191025	-0.268691254	3.369642792	9.458530884	10.04442602
1.04190025	0.155526581	3.4212854	9.852212219	10.4305066
1.05189125	0.408949585	3.450025635	10.20428009	10.77948277
1.06188225	0.450862427	3.418890381	10.51144135	11.06266186
1.07187325	0.34518219	3.398383026	10.76501404	11.29396676
1.08186425	0.171842651	3.322490845	10.8968898	11.39344911
1.09185525	-0.000598755	3.133284302	10.87668182	11.31899635
1.10184625	-0.155376892	2.923121338	10.68238586	11.07619737
1.11183625	-0.312849426	2.754571838	10.37253021	10.73661603
1.12182725	-0.415086823	2.656226349	10.01911514	10.37354827
1.13181825	-0.467926941	2.603086853	9.717492371	10.07098182
1.14180925	-0.418679352	2.622995453	9.547745361	9.910340006
1.15180025	-0.383203125	2.638263702	9.501641235	9.868559478
1.16179125	-0.442779236	2.605481873	9.56540863	9.923791186
1.17178125	-0.501606903	2.505040741	9.647887115	9.980409029
1.18177225	-0.52301239	2.351759491	9.559870148	9.858774361
1.19176325	-0.605041809	2.251917114	9.328301697	9.615322086
1.20175425	-0.67045578	2.224524078	8.995393982	9.290593696
1.21174525	-0.682281189	2.233206024	8.695118408	9.003210588
1.22173625	-0.688418427	2.243983612	8.477620697	8.796558137
1.23172725	-0.641266479	2.305505676	8.333470459	8.670254265
1.24171725	-0.578397217	2.381248169	8.250692596	8.606905048
1.25170825	-0.638272705	2.464774475	8.214916992	8.600428271
1.26169925	-0.770447845	2.530487823	8.285869446	8.697849791
1.27169025	-0.84244812	2.54845047	8.470735016	8.885812869
1.28168125	-0.841849365	2.531835022	8.721763	9.120748257
1.29167225	-0.762963409	2.465073853	9.016500092	9.378484748
1.30166325	-0.674946442	2.386487274	9.306746521	9.63153181
1.31165325	-0.58737854	2.33544342	9.468709717	9.770147042
1.32164425	-0.49142807	2.312541046	9.490264893	9.780310597
1.33163525	-0.404608612	2.357597351	9.416618042	9.715691882
1.34162625	-0.348325653	2.426154785	9.350455627	9.666363238
1.35161725	-0.320034485	2.488574982	9.283544769	9.616633038
1.36160825	-0.3463797	2.519410858	9.180858307	9.526571745
1.37159825	-0.401764526	2.560425568	9.182205505	9.540969121
1.38158925	-0.455502777	2.589914246	9.287885742	9.65297675
1.39158025	-0.533340912	2.564467163	9.413025513	9.770670072
1.40157125	-0.648601227	2.523153076	9.531878357	9.881482177
1.41156225	-0.705033875	2.506986694	9.594298553	9.94145964
1.42155325	-0.695902863	2.463726654	9.576335907	9.912640376
1.43154425	-0.692759399	2.451152802	9.473499756	9.809957353
1.44153425	-0.586630096	2.571053467	9.323361969	9.689144916
1.45152525	-0.408799896	2.765948181	9.224567413	9.638995314
1.46151625	-0.139360199	3.027604065	9.150321808	9.639201047
1.47150725	0.022453308	3.264411621	9.018595734	9.591243735
1.48149825	0.060025177	3.439697113	8.885372772	9.528114638
1.49148925	-0.001496887	3.529809723	8.76741806	9.451305643
1.50148025	-0.136067047	3.502266998	8.698561249	9.378131806
1.51147025	-0.288599854	3.418890381	8.701105957	9.353146326
1.52146125	-0.451311493	3.29494812	8.721014557	9.333619881
1.53145225	-0.628542938	3.205583954	8.804540863	9.390994331
1.54144325	-0.803379364	3.147953796	8.89734787	9.471949674
1.55143425	-0.956660614	3.12295578	9.025481415	9.598300219
1.56142525	-1.070124664	3.079396362	9.148375854	9.711880844
1.57141625	-1.082249451	3.072510681	9.223220215	9.781583557
1.58140625	-1.073268127	3.07730072	9.245074768	9.802708384
1.59139725	-1.01099762	3.144960022	9.22965683	9.803032945
1.60138825	-0.915795593	3.240611115	9.198521576	9.795562319
1.61137925	-0.841999054	3.351979523	9.192683716	9.820904389
1.621369875	-0.812210999	3.441643066	9.226363678	9.880808693
1.631360875	-0.790206757	3.452570343	9.313781891	9.964497067
1.641351875	-0.777632904	3.472478943	9.403595123	10.05437339
1.651341875	-0.808468781	3.469784546	9.480834503	10.12814146
1.661332875	-0.829125824	3.473826141	9.49759964	10.14688704
1.671323875	-0.862057343	3.529660034	9.433383179	10.10892482
1.681314875	-0.838256836	3.629053345	9.334289246	10.04995813
1.691305875	-0.838556213	3.738026733	9.196126556	9.962166633
1.701296875	-0.855021973	3.777544556	9.104067993	9.893682806
1.711287875	-0.797092438	3.780837708	9.057365112	9.847129171
1.721277875	-0.699794769	3.783232727	9.04359375	9.827977946
1.731268875	-0.60489212	3.831282806	9.032516785	9.830105894
1.741259875	-0.550106049	3.896547089	9.063053284	9.880517734
1.751250875	-0.618813171	3.926335144	9.166637878	9.991310595
1.761241875	-0.692460022	3.910019073	9.369615784	10.1763181
1.771232875	-0.715512085	3.792663116	9.586365051	10.3341495
1.781222875	-0.738863525	3.646566925	9.743538208	10.42976061
1.791213875	-0.759819946	3.530857544	9.851014709	10.49222437
1.801204875	-0.738414459	3.428171082	9.858798523	10.46391519
1.811195875	-0.654289398	3.344195709	9.783804474	10.36023984
1.821186875	-0.540376282	3.298690338	9.673034821	10.23430345
1.831177875	-0.408799896	3.265010376	9.556876373	10.10748713
1.841168875	-0.45864624	3.38266571	9.35135376	9.954928469
1.851158875	-0.588725739	3.556304626	8.942703552	9.641879869
1.861149875	-0.689316559	3.530857544	8.551417236	9.277329846
1.871140875	-0.518222351	3.439697113	8.281378784	8.982277284
1.881131875	0.006286926	3.178789673	8.278983765	8.86827579
1.891122875	0.451760559	2.975961456	8.984017639	9.474861853
1.901113875	0.722697144	2.981200562	10.20637573	10.65738962
1.911104875	0.932411041	2.894381104	11.43277542	11.83026568
1.921094875	1.119372253	2.699037323	12.48688339	12.82419797
1.931085875	1.339264984	2.47944397	13.19161789	13.48925705
1.941076875	1.429527283	2.225721588	13.54203918	13.79797848
1.951067875	1.310075684	1.887874146	13.49728226	13.69149354
1.961058875	1.030756531	1.551822968	12.94103897	13.07444466
1.971049875	0.717607727	1.306333466	11.97165482	12.06407837
1.981040875	0.364791412	1.303639069	10.84719315	10.93133783
1.991030875	0.061522064	1.467997284	9.80880249	9.918236097
2.001021875	-0.056582336	1.701811066	8.882828064	9.044556201
2.011012875	0.025447083	1.924098816	8.06897049	8.295244937
2.021003875	0.182620239	2.110461273	7.287595367	7.589232054
2.030994875	0.326920166	2.271226959	6.621929626	7.008230923
2.040985875	0.476309509	2.505938873	6.150859222	6.658803914
2.050976875	0.617166595	2.737507324	5.964796143	6.591937043
2.060966875	0.849782867	3.000660095	6.030210114	6.788926715
2.070957875	1.098415833	3.215014343	6.358028412	7.208839009
2.080948875	1.288670197	3.394790497	6.90005127	7.797177753
2.090939875	1.51754425	3.486399994	7.601043549	8.499046329
2.100930875	1.685494995	3.429817657	8.344248047	9.177745802
2.110921875	1.719923401	3.265160065	9.013506317	9.739748605
2.120912875	1.600322113	3.058889008	9.580227814	10.18325085
2.130902875	1.400487671	2.851869507	9.967173157	10.46131283
2.140893875	1.205592957	2.644850006	10.14350647	10.55174912
2.150884875	0.984203339	2.45130249	10.15129028	10.48933909
2.160875875	0.782422943	2.3237677	9.978848877	10.2756755
2.170866875	0.556542664	2.298619995	9.660011902	9.945311637
2.180857875	0.423469391	2.39516922	9.254505157	9.568804922
2.190848875	0.366138611	2.540966034	8.897048492	9.260023636
2.200838875	0.41418869	2.697540436	8.698561249	9.116646558
2.210829875	0.582887878	2.864593048	8.716972961	9.194088819
2.220820875	0.782273254	2.973716125	8.956923981	9.470027784
2.230811875	0.886456604	2.989134064	9.282646637	9.792254916
2.240802875	0.928519135	2.967728577	9.58067688	10.07268237
2.250793875	0.873733063	2.92282196	9.789792023	10.25408823
2.260784875	0.699944458	2.851121063	9.934391327	10.3590996
2.270774875	0.534538422	2.717898102	9.967622223	10.3453465
2.280765875	0.377065887	2.629731445	9.862540741	10.21407735
2.290756875	0.264499969	2.607427826	9.628726959	9.979029159
2.300747875	0.218994598	2.64440094	9.31033905	9.681075777
2.310738875	0.234711914	2.777025146	8.997190247	9.418937874
2.320729875	0.260009308	2.960693207	8.754245453	9.245005276
2.330720875	0.27378067	3.157384186	8.525970154	9.095944031
2.340710875	0.347427521	3.3323703	8.410410461	9.053198431
2.350701875	0.4153862	3.513493652	8.37553299	9.092124955
2.360692875	0.437989197	3.668720856	8.405021667	9.181270962
2.370683875	0.396974487	3.756737823	8.469687195	9.273956491
2.380674875	0.338446198	3.797902222	8.532406769	9.345617817
2.390665875	0.282163239	3.807781677	8.572373657	9.384263824
2.400656875	0.221389618	3.796704712	8.579858093	9.384985079
2.410646875	0.116308136	3.774251404	8.55920105	9.355128211
2.420637875	0.011526031	3.782484283	8.514144745	9.316543401
2.430628875	-0.052241364	3.791914673	8.478518829	9.287982966
2.440619875	-0.124840393	3.823349304	8.446784821	9.272634945
2.450610875	-0.199535065	3.87768631	8.422086182	9.274039088
2.460601875	-0.310155029	3.902834015	8.457712097	9.319935805
2.470592875	-0.453706512	3.879632263	8.520731049	9.373380057
2.480582875	-0.596808929	3.786974945	8.627908173	9.441300735
2.490573875	-0.716709595	3.688180389	8.840765533	9.606012828
2.500564875	-0.827030182	3.562591553	9.123527527	9.829282376
2.510555875	-0.890348511	3.461701355	9.446406097	10.10003391
2.520546875	-0.897683258	3.385210419	9.766889648	10.37581892
2.530537875	-0.821491699	3.32069458	10.12569351	10.68791515
2.540528875	-0.703836365	3.293151855	10.45291306	10.98196823
2.550518875	-0.560135193	3.240910492	10.68522995	11.17995489
2.560509875	-0.396974487	3.193608856	10.8450975	11.31250928
2.570500875	-0.224084015	3.198548584	10.99927689	11.45709469
2.580491875	0.012274475	3.272195435	11.12935638	11.60043047
2.590482875	0.154029694	3.404819641	11.16378479	11.67247244
2.600473875	0.354612579	3.519930267	10.76142151	11.32801183
2.610464875	0.5242099	3.500620422	9.897268524	10.51118754
2.62045575	0.370030518	3.39553894	8.965007172	9.59364169
2.63044675	-0.054187317	3.382066956	8.270900574	8.935832891
2.64043775	-0.458945618	3.426374817	7.98110321	8.697625189
2.65042875	-0.593815155	3.418141937	8.001161499	8.720945825
2.66041975	-0.382903748	3.239712982	8.315507813	8.932526276
2.67041075	-0.16615448	3.009042664	9.018745422	9.508928123
2.68040175	-0.124690704	2.838696899	10.08976822	10.48223118
2.69039175	-0.301024017	2.711311798	11.21527771	11.54228232
2.70038275	-0.6821315	2.51102829	12.14604218	12.42163061
2.71037375	-1.030307465	2.174827423	12.67399429	12.90044725
2.72036475	-1.242117004	1.760189667	12.65184036	12.83394666
2.73035575	-1.429676971	1.390907593	12.18361404	12.34581109
2.74034675	-1.599573669	1.12446167	11.34386032	11.51113448
2.75033775	-1.758243713	1.0683284	10.40501266	10.60646195
2.76032775	-1.782343597	1.237177277	9.65552124	9.896284491
2.77031875	-1.647923126	1.536854095	9.329948273	9.598203265
2.78030975	-1.306034088	1.841021576	9.386680298	9.654266026
2.79030075	-0.916993103	1.991309052	9.596543884	9.843771768
2.80029175	-0.700393524	1.978884888	9.756710815	9.979977075
2.81028275	-0.622106323	1.835932159	9.729467468	9.92069556
2.82027375	-0.695304108	1.556463318	9.509125671	9.660719274
2.83026375	-0.855171661	1.305884399	9.215735779	9.347001582
2.84025475	-1.046623535	1.157093811	8.904233551	9.039892811
2.85024575	-1.236428833	1.040336609	8.62701004	8.777035875
2.86023675	-1.433419189	1.001118164	8.354726257	8.535711979
2.87022775	-1.619482269	1.049467621	8.07825119	8.305555213
2.88021875	-1.696272583	1.18179245	7.846083984	8.113877492
2.89020975	-1.707798615	1.379830627	7.653434601	7.962133499
2.90019975	-1.685345306	1.576671295	7.593708801	7.936667722
2.91019075	-1.666783905	1.726509705	7.641459503	8.009426177
2.92018175	-1.611548767	1.806144104	7.794441376	8.161651935
2.93017275	-1.584604797	1.753303986	8.046517181	8.386386944
2.94016375	-1.564845886	1.61708725	8.304879913	8.604344495
2.95015475	-1.553768921	1.454525299	8.575217743	8.835394787
2.96014575	-1.493294678	1.339414673	8.923842773	9.146525597
2.97013575	-1.382824402	1.255588989	9.291478271	9.477355934
2.98012675	-1.274000702	1.21801712	9.793384552	9.950729846
2.99011775	-1.259480896	1.329684906	10.50126251	10.65977807
3.00010875	-1.32803833	1.494941254	11.28338608	11.45920314
3.01009975	-1.404678955	1.567989349	11.89606201	12.08089421
3.02009075	-1.401535492	1.561403046	12.24139389	12.41990361
3.03008175	-1.367256775	1.526226196	12.22747284	12.39797764
3.04007175	-1.410666504	1.467847595	11.84022812	12.01397347
3.05006275	-1.474134521	1.405577087	11.1862381	11.37016457
3.06005375	-1.497935028	1.388362885	10.50335815	10.70008847
3.07004475	-1.46500351	1.476379852	9.984986115	10.19930784
3.08003575	-1.407073975	1.648521881	9.650581512	9.890965832
3.09002675	-1.32803833	1.869911499	9.48472641	9.758088434
3.10001775	-1.165775757	2.070195007	9.40284668	9.698364097
3.11000775	-1.004261627	2.257904663	9.360335083	9.681040634
3.11999875	-0.837508392	2.416574707	9.289682007	9.635322797
3.12998975	-0.759969635	2.500250702	9.229956207	9.592752421
3.13998075	-0.791254578	2.484832764	9.220525818	9.582200897
3.14997175	-0.85187851	2.387684784	9.218280487	9.560514147
3.15996275	-0.963995361	2.278561707	9.183552704	9.510981588
3.16995375	-1.110241241	2.230062561	9.188342743	9.520055515
3.17994375	-1.234931946	2.231110382	9.2366922	9.582243643
3.18993475	-1.287322998	2.26299408	9.297316132	9.654969185
3.19992575	-1.243913269	2.322121124	9.321416016	9.686504182
3.20991675	-1.204545135	2.431842957	9.290580139	9.67882578
3.21990775	-1.190923462	2.559377747	9.175020447	9.599464222
3.22989875	-1.175505524	2.65607666	8.974736938	9.433051446
3.23988975	-1.205592957	2.726729736	8.730894012	9.225888558
3.24988075	-1.268013153	2.786305847	8.534053345	9.066500103
3.25987075	-1.329385529	2.841990051	8.465196533	9.027941387
3.26986175	-1.400936737	2.918630676	8.488398285	9.084818887
3.27985275	-1.420545959	2.975961456	8.639733582	9.247664233
3.28984375	-1.44973526	3.045267334	8.861422577	9.481571365
3.29983475	-1.506916351	3.105142822	9.062005463	9.697043459
3.30982575	-1.615590363	3.1253508	9.175170135	9.826581138
3.31981675	-1.71184021	3.137475586	9.254505157	9.92068625
3.32980675	-1.759441223	3.157084808	9.278455353	9.957537428
3.33979775	-1.746268616	3.210972748	9.328451385	10.01897227
3.34978875	-1.742825775	3.260220337	9.400301971	10.10109675
3.35977975	-1.766626282	3.295546875	9.518406372	10.22651737
3.36977075	-1.754800873	3.281925201	9.696835327	10.38648037
3.37976175	-1.726958771	3.29494812	9.832602997	10.51280892
3.38975275	-1.737886047	3.31021637	9.97495697	10.65258405
3.39974275	-1.7305513	3.291804657	10.12464569	10.78606676
3.40973375	-1.694027252	3.260819092	10.29753616	10.93352279
3.41972475	-1.663790131	3.206631775	10.46324158	11.06933192
3.42971575	-1.656455383	3.126398621	10.59571609	11.17082863
3.43970675	-1.611848145	3.053500214	10.62984512	11.17656143
3.44969775	-1.548829193	2.976260834	10.54302567	11.06401331
3.45968875	-1.460662537	2.966680756	10.30891251	10.82628315
3.46967875	-1.373394012	2.95560379	9.987381134	10.50569307
3.47966975	-1.435963898	2.960393829	9.638456726	10.18458502
3.48966075	-1.654808807	3.051105194	9.203311615	9.836085592
3.49965175	-1.80075531	3.10424469	8.690328369	9.402173256
3.50964275	-1.80898819	3.043171692	8.262967072	8.989435858
3.51963375	-1.7305513	2.946772156	8.074508972	8.767894222
3.52962475	-1.520388336	2.891087952	8.32164505	8.939784482
3.53961475	-1.215472412	2.960992584	8.982221375	9.535468058
3.54960575	-0.851429443	2.980601807	9.862840118	10.33849769
3.55959675	-0.508642273	2.909799042	10.67579956	11.07692844
3.56958775	-0.223335571	2.792892151	11.33323242	11.67442857
3.57957875	-0.051043854	2.668201447	11.74577454	12.04512864
3.58956975	-0.057031403	2.53437973	11.80669785	12.07577936
3.59956075	-0.222587128	2.391127625	11.51375702	11.76153209
3.60955175	-0.406404877	2.219883728	10.89180038	11.12314543
3.61954175	-0.640368347	2.155517578	10.21894958	10.46342479
3.6295325	-0.835712128	2.15761322	9.672585754	9.94548263
3.6395235	-0.932860107	2.20326828	9.293573914	9.596621029
3.6495145	-0.953816528	2.256856842	9.081165619	9.405888463
3.6595055	-0.860261078	2.338437195	8.96515686	9.304965081
3.6694965	-0.694256287	2.374512177	8.933273163	9.269502105
3.6794875	-0.514330444	2.413281555	8.849447479	9.187011721
3.6894775	-0.351768494	2.497705994	8.787476349	9.142320104
3.6994685	-0.177381134	2.603835297	8.734935608	9.116497266
3.7094595	0.006735992	2.713257751	8.638985138	9.055047057
3.7194505	0.130079498	2.82687149	8.525521088	8.982907821
3.7294415	0.173339539	2.884351959	8.344397736	8.830543946
3.7394325	0.129331055	2.903362427	8.211025085	8.710176396
3.7494235	0.033081207	2.904260559	8.16252594	8.663870583
3.7594135	-0.033081207	2.872376862	8.214617615	8.702389658
3.7694045	-0.130528564	2.828368378	8.391100616	8.85591751
3.7793955	-0.315394135	2.750230865	8.565338287	9.001570044
3.7893865	-0.440683594	2.648143158	8.768914948	9.17064521
3.7993775	-0.538879395	2.511477356	8.922345886	9.284727547
3.8093685	-0.609083405	2.393672333	9.085805969	9.415546715
3.8193595	-0.608035583	2.370171204	9.263785858	9.58150026
3.8293495	-0.567020874	2.415826263	9.446406097	9.766899066
3.8393405	-0.503702545	2.558180237	9.612859955	9.960174642
3.8493315	-0.437689819	2.708916779	9.681118011	10.06249713
3.8593225	-0.49606842	2.829715576	9.566306763	9.988373201
3.8693135	-0.611628113	2.855162659	9.303004303	9.750483671
3.8793045	-0.719403992	2.845432892	8.973988495	9.441742421
3.8892955	-0.811462555	2.836750946	8.683292999	9.170888982
3.8992865	-0.830173645	2.840343475	8.437803497	8.941659085
3.9092765	-0.858764191	2.921774139	8.235723724	8.780739452
3.9192675	-0.851429443	3.031346283	8.127947845	8.716508966
3.9292585	-0.832119598	3.117417297	8.048912201	8.671545494
3.9392495	-0.793649597	3.2235466	8.028554535	8.687854758
3.9492405	-0.772992554	3.277733917	8.041427765	8.718120074
3.9592315	-0.781824188	3.312611389	8.128097534	8.811958511
3.9692225	-0.759670258	3.294499054	8.287815399	8.950905374
3.9792125	-0.756826172	3.199147339	8.41295517	9.032449515
3.9892035	-0.770597534	3.116818542	8.525072021	9.109623009
3.9991945	-0.873433685	3.027604065	8.666078796	9.221181838
4.0091855	-1.010548553	2.97087204	8.782087555	9.325896787
4.0191765	-1.116977234	2.889141998	8.881181488	9.405857975
4.0291675	-1.097966766	2.820285187	9.044940948	9.537845476
4.0391585	-0.982407074	2.821782074	9.256301422	9.726597234
4.0491485	-0.785716095	2.888393555	9.435329132	9.898767749
4.0591395	-0.590072937	3.001857605	9.539063416	10.01763775
4.0691305	-0.400567017	3.149600372	9.547146606	10.06123475
4.0791215	-0.206570435	3.293900299	9.502539368	10.05935907
4.0891125	-0.020207977	3.400029602	9.418563995	10.01348877
4.0991035	0.144449615	3.506458282	9.253906403	9.897014655
4.1090945	0.210013275	3.605252838	9.107211456	9.797104374
4.1190855	0.193248138	3.655997314	8.979526978	9.697193715
4.1290755	0.085621948	3.662284241	8.815917206	9.546729972
4.1390665	-0.115709381	3.59103241	8.68553833	9.39933394
4.1490575	-0.301024017	3.465293884	8.594527588	9.271719453
4.1590485	-0.405357056	3.363206177	8.580905914	9.225368092
4.1690395	-0.42945694	3.32069458	8.592132568	9.221506809
4.1790305	-0.370030518	3.305276642	8.595276031	9.216319565
4.1890215	-0.324375458	3.267405396	8.618627472	9.22290068
4.1990115	-0.328866119	3.260070648	8.689579926	9.286819307
4.2090025	-0.343385925	3.228336639	8.827592926	9.405661498
4.2189935	-0.284109192	3.157084808	9.010512543	9.551818612
4.2289845	-0.177231445	3.046764221	9.240434418	9.731382812
4.2389755	-0.155376892	2.923121338	9.48472641	9.926168214
4.2489665	-0.207618256	2.7391539	9.816286926	10.1934076
4.2589575	-0.245788879	2.526296539	10.162966	10.47513553
4.2689475	-0.275876312	2.286495209	10.53748718	10.78623216
4.2789385	-0.334254913	2.093097382	10.8835675	11.08804873
4.2889295	-0.315992889	1.974843292	11.13594269	11.31410965
4.2989205	-0.25387207	1.990111542	11.28428421	11.46124187
4.3089115	-0.185913391	2.198927307	11.23024658	11.44501129
4.3189025	-0.166902924	2.474953308	10.87503525	11.1543553
4.3288935	-0.137563934	2.67478775	10.33046768	10.67201836
4.3388845	-0.091908875	2.853216705	9.859247589	10.26421238
4.3488745	-0.017962646	2.924468536	9.473799133	9.914923545
4.3588655	0.073048096	2.856809235	9.361083527	9.787572724
4.3688565	0.157771912	2.796634369	9.62977478	10.02888918
4.3788475	0.12992981	2.680924988	10.29005173	10.63435024
4.3888385	0.018112335	2.491718445	11.07127716	11.34822307
4.3988295	-0.199834442	2.282603302	11.8656752	12.08488559
4.4088205	-0.440384216	2.10851532	12.49900818	12.68325591
4.4188105	-0.703087921	1.976340179	12.74719208	12.91863611
4.4288015	-0.878672791	1.847158813	12.41173965	12.57916304
4.4387925	-0.878373413	1.781295776	11.52079239	11.69073187
4.4487835	-0.841549988	1.893562317	10.35516632	10.5604571
4.4587745	-0.775686951	2.087708588	9.2566008	9.520760251
4.4687655	-0.642014923	2.301015015	8.351882172	8.68681697
4.4787565	-0.589623871	2.474055176	7.770790558	8.176416771
4.4887465	-0.657283173	2.600841522	7.541018372	8.003958763
4.4987375	-0.787063293	2.705174561	7.557484131	8.065544273
4.5087285	-0.893042908	2.811902618	7.810009003	8.348686279
4.5187195	-0.881816254	2.90186554	8.169710999	8.714505225
4.5287105	-0.765807495	2.985092468	8.488697662	9.030793219
4.5387015	-0.56866745	3.113824768	8.721463623	9.278104067
4.5486925	-0.34982254	3.283122711	8.799451447	9.398490108
4.5586835	-0.210761719	3.416944427	8.667425995	9.31902372
4.5686735	-0.220940552	3.518283691	8.445138245	9.151365736
4.5786645	-0.407752075	3.523672485	8.287216644	9.014460009
4.5886555	-0.762214966	3.443439331	8.345295868	9.059923245
4.5986465	-1.109792175	3.200943604	8.610244904	9.252783145
4.6086375	-1.399739227	2.938239899	9.044192505	9.611968668
4.6186285	-1.632355499	2.73451355	9.472002869	9.993046941
4.628619125	-1.807042236	2.634371796	9.832303619	10.33825473
4.638609125	-1.848955078	2.617756348	10.11042526	10.60622375
4.648600125	-1.710343323	2.600542145	10.28556107	10.74620213
4.658591125	-1.51754425	2.658920746	10.32986893	10.77399611
4.668582125	-1.352287903	2.72283783	10.22852966	10.67077071
4.678573125	-1.176104279	2.773582306	9.981692963	10.42641715
4.688564125	-1.058598633	2.780018921	9.74443634	10.18838436
4.698555125	-1.045875092	2.748434601	9.608518982	10.04845185
4.708546125	-1.052012329	2.68421814	9.622290344	10.04491057
4.718536125	-1.114731903	2.598147125	9.793234863	10.19315676
4.728527125	-1.199006653	2.4923172	10.08827133	10.46052008
4.738518125	-1.304088135	2.400408325	10.35351974	10.70784652
4.748509125	-1.382525024	2.295326843	10.5279071	10.86355047
4.758500125	-1.450334015	2.212998047	10.47252228	10.80159951
4.768491125	-1.460812225	2.156116333	10.15203873	10.48077766
4.778482125	-1.424138489	2.148931274	9.618248749	9.957749999
4.788472125	-1.430425415	2.220332794	9.018146667	9.396965675
4.798463125	-1.395248566	2.337089996	8.4351091	8.863395159
4.808454125	-1.410516815	2.447260895	7.91913208	8.407811634
4.818445125	-1.422192535	2.596051483	7.519163818	8.080837793
4.828436125	-1.473535767	2.715054016	7.309300232	7.935281712
4.838427125	-1.534309387	2.777474213	7.285649414	7.946644303
4.848418125	-1.584155731	2.841840363	7.417076111	8.099297751
4.858409125	-1.600771179	2.861449585	7.640860748	8.314632588
4.868399125	-1.586550751	2.884052582	7.917485504	8.574466706
4.878390125	-1.554966431	2.970123596	8.167914734	8.829178097
4.888381125	-1.487456818	3.056194611	8.29125824	8.960904892
4.898372125	-1.385219421	3.149151306	8.322543182	9.005593363
4.908363125	-1.27654541	3.201692047	8.322543182	9.008058901
4.918354125	-1.145118713	3.329825592	8.311765594	9.026875575
4.928345125	-0.95591217	3.412902832	8.349936218	9.07100373
4.938335125	-0.823138275	3.505709839	8.522078247	9.251668809
4.948326125	-0.816551971	3.57456665	8.776698761	9.511820278
4.958317125	-0.886306915	3.593577118	9.121731262	9.844049861
4.968308125	-0.96294754	3.527714081	9.507479095	10.18647109
4.978299125	-1.0577005	3.45406723	9.911638641	10.54940242
4.988290125	-1.212328949	3.38266571	10.22748184	10.84036686
4.998281125	-1.324894867	3.300037537	10.34274216	10.93699728
5.008272125	-1.413660278	3.259771271	10.22658371	10.82624397
5.018262125	-1.494043121	3.287463684	9.940229187	10.57580912
5.028253125	-1.466650085	3.383563843	9.594897308	10.27918387
5.038244125	-1.382225647	3.495531006	9.236841888	9.972388522
5.048235125	-1.333576813	3.575614471	8.974287872	9.751988965
5.058226125	-1.370849304	3.646716614	8.857081604	9.676035573
5.068217125	-1.463057556	3.67171463	8.889414368	9.728500066
5.078208125	-1.562001801	3.585044861	8.978329468	9.79299731
5.088198125	-1.683249664	3.451073456	9.177415466	9.948275834
5.098189125	-1.776356049	3.309767303	9.480535126	10.19757553
5.108180125	-1.810784454	3.2235466	9.87316864	10.54275353
5.118171125	-1.74102951	3.163671112	10.28136978	10.89708967
5.128162125	-1.613644409	3.133583679	10.58987823	11.16103561
5.138153125	-1.440903625	3.147953796	10.79016174	11.33196394
5.148144125	-1.377435608	3.25168808	10.78088104	11.34452292
5.158135125	-1.36546051	3.356769562	10.32986893	10.94708072
5.168125125	-1.348246307	3.30078598	9.717941437	10.35139324
5.178116125	-1.269959106	3.185375977	9.417516174	10.02242621
5.188107125	-1.089883575	3.002905426	9.584419098	10.10279054
5.198098125	-0.935704193	2.852318573	10.09620483	10.533025
5.208089125	-0.842298431	2.758463745	10.577005	10.96319405
5.218080125	-0.700692902	2.641856232	10.88835754	11.22616163
5.228071125	-0.480800171	2.533481598	11.07771378	11.37389293
5.238062125	-0.197888489	2.496059418	11.18474121	11.46158403
5.248052125	0.079634399	2.491269379	11.1862381	11.460571
5.258043125	0.267044678	2.467319183	10.97487762	11.25197386
5.268034125	0.339044952	2.493514709	10.56547897	10.86102725
5.278025125	0.264200592	2.475701752	9.985435181	10.29115236
5.288016125	0.096698914	2.436183929	9.363927612	9.676129554
5.298007125	-0.057181091	2.32496521	8.816515961	9.118096654
5.307998125	-0.229772186	2.176174622	8.326884155	8.609618515
5.317989125	-0.34398468	2.004481659	7.912246399	8.16945012
5.327979125	-0.445473633	1.845362549	7.61376709	7.846863003
5.337970125	-0.546064453	1.740430756	7.402107239	7.623547545
5.347961125	-0.583786011	1.726509705	7.335645447	7.558659669
5.357952125	-0.534538422	1.725761261	7.29193634	7.512410988
5.367943125	-0.369132385	1.755998383	7.265142059	7.483453626
5.377934125	-0.172890472	1.873504028	7.309000854	7.547277784
5.387925125	0.020507355	2.145189056	7.406448212	7.71088398
5.397915125	0.264949036	2.423310699	7.499704285	7.885949346
5.407906125	0.606688385	2.524949341	7.650889893	8.079576481
5.417897125	1.00396225	2.468217316	8.001760254	8.433753854
5.427888125	1.263971558	2.42675354	8.554111633	8.981068014
5.437879125	1.299896851	2.478096771	9.420509949	9.827344663
5.447870125	1.148262177	2.567760315	10.54212753	10.9109281
5.457861125	1.030307465	2.556982727	11.76029434	12.0790818
5.467852125	1.001866608	2.403851166	12.71605682	12.97999762
5.477842125	0.928070068	2.151326294	13.18054092	13.38716467
5.487833125	0.798589325	1.936373291	13.20404205	13.36914406
5.497824125	0.67629364	1.761237488	12.76635223	12.90500213
5.507815125	0.56043457	1.733694763	11.93093948	12.06926267
5.517806125	0.430055695	1.898052979	11.00511475	11.17587149
5.527797125	0.380059662	2.165696411	10.10174332	10.33827376
5.537788125	0.400417328	2.400258636	9.319919128	9.632365655
5.547778125	0.454754333	2.574645996	8.677455139	9.062771717
5.557769125	0.529898071	2.730172577	8.204438782	8.662993131
5.567760125	0.551752625	2.866838379	7.947423248	8.466683503
5.577751125	0.519270172	2.960842896	7.795489197	8.354991561
5.587742125	0.423918457	3.003055115	7.752827911	8.324925676
5.597733125	0.276475067	3.017425232	7.903265076	8.464212447
5.607724125	0.212258606	3.018922119	8.213869171	8.75366159
5.617715125	0.249531097	2.970273285	8.515042877	9.021681903
5.627704875	0.251926117	2.921325073	8.704698486	9.185280763
5.637695875	0.201481018	2.89363266	8.793912964	9.259946533
5.647686875	0.172591095	2.870730286	8.823401642	9.280263821
5.657677875	0.088166656	2.850222931	8.810977478	9.260932363
5.667668875	-0.089064789	2.816692657	8.837023315	9.27548765
5.677659875	-0.271535339	2.818189545	8.921148376	9.359637392
5.687650875	-0.431103516	2.793490906	9.039552155	9.471163859
5.697641875	-0.543370056	2.7988797	9.135951691	9.570506355
5.707631875	-0.635578308	2.82103363	9.240733795	9.68263144
5.717622875	-0.667162628	2.883304138	9.309740295	9.768818408
5.727613875	-0.610430603	2.89243515	9.362430725	9.818040319
5.737604875	-0.552052002	2.900518341	9.38757843	9.840955078
5.747595875	-0.5043013	2.898123322	9.355395355	9.80698021
5.757586875	-0.560284882	2.967878265	9.331145782	9.807777636
5.767577875	-0.574355621	3.077899475	9.294621735	9.807820489
5.777568875	-0.562230835	3.173849945	9.241182861	9.78717976
5.787558875	-0.498613129	3.235671387	9.166787567	9.733867611
5.797549875	-0.377514954	3.270997925	9.096583557	9.674180967
5.807540875	-0.271535339	3.325634308	9.07637558	9.670272419
5.817531875	-0.196840668	3.41664505	9.104217682	9.726201172
5.827522875	-0.175584869	3.468886414	9.176367645	9.811713722
5.837513875	-0.151784363	3.500770111	9.252110138	9.893430743
5.847504875	-0.21644989	3.501817932	9.298813019	9.938687184
5.857495875	-0.298928375	3.494034119	9.311686249	9.95013233
5.867485875	-0.350870361	3.447480927	9.3256073	9.948627356
5.877476875	-0.352666626	3.437152405	9.408983917	10.0233412
5.887467875	-0.316142578	3.463796997	9.548942871	10.16268398
5.897458875	-0.201031952	3.517834625	9.782457275	10.3976942
5.907449875	-0.099093933	3.536695404	10.05174728	10.65624969
5.917440875	0.045205994	3.518583069	10.35247192	10.93417328
5.927431875	0.080233154	3.503464508	10.65903442	11.22032601
5.937422875	0.062719574	3.460952911	10.914104	11.44988188
5.947412875	0.025596771	3.420986023	11.03101089	11.54932907
5.957403875	-0.176333313	3.481609955	10.89374634	11.43793734
5.967394875	-0.449515228	3.536396027	10.35741165	10.95372708
5.977385875	-0.656983795	3.418890381	9.793384552	10.39378757
5.987376875	-0.679287415	3.212319946	9.391620026	9.949017918
5.997367875	-0.496966553	3.042872314	9.420060883	9.911790691
6.007358875	-0.191302185	2.91937912	10.02510269	10.44327798
6.017349875	0.032931519	2.865640869	10.90048233	11.27091377
6.027339875	0.089214478	2.898422699	11.70610703	12.05992351
6.037330875	0.131576385	2.887645111	12.38509506	12.71795527
6.047321875	0.186512146	2.761906586	12.73776169	13.03508679
6.057312875	0.095501404	2.518961792	12.6287883	12.87791066
6.067303875	-0.051792297	2.218985596	11.95683563	12.16110595
6.077294875	-0.256716156	1.980381775	10.9301207	11.11104647
6.087285875	-0.467777252	1.845063171	9.911039886	10.09216455
6.097275875	-0.643062744	1.77381134	9.007967834	9.203446141
6.107266875	-0.764759674	1.786385193	8.340206451	8.563589964
6.117257875	-0.878523102	1.845961304	7.896080017	8.156436453
6.127248875	-1.041085052	1.977537689	7.648644562	7.968455122
6.137239875	-1.124611359	2.132016449	7.631729736	8.003345776
6.147230875	-1.14077774	2.257455597	7.773335266	8.174485965
6.157221875	-1.087338867	2.345023499	8.060288544	8.464614133
6.167212875	-1.004261627	2.38693634	8.394992523	8.785323328
6.177202875	-0.986149292	2.343077545	8.650660858	9.016453632
6.187193875	-1.024170227	2.283351746	8.775501251	9.125351613
6.197184875	-1.032103729	2.193239136	8.759035492	9.088247288
6.207175875	-0.995579681	2.095043335	8.692424011	8.996589391
6.217166875	-0.925974426	2.075583801	8.581205292	8.877080658
6.227157875	-0.775387573	2.096091156	8.522976379	8.811126511
6.237148875	-0.487536163	2.135309601	8.590635681	8.865453176
6.247139875	-0.226928101	2.23021225	8.745114441	9.027866283
6.257129875	-0.065114594	2.366578674	8.987759857	9.294340309
6.267120875	0.045056305	2.499651947	9.244476013	9.576566539
6.277111875	0.079634399	2.576142883	9.536818085	9.878955055
6.287102875	0.068557434	2.652184753	9.876761169	10.2268859
6.297093875	0.049247589	2.655178528	10.15652939	10.4979754
6.307084875	0.030536499	2.604284363	10.30861313	10.63253188
6.317075875	0.117805023	2.555336151	10.27822632	10.59176837
6.327066875	0.15567627	2.525697784	10.06956024	10.38265033
6.337056875	0.176782379	2.554887085	9.753118286	10.08375011
6.347047875	0.154029694	2.613565063	9.481433258	9.836260677
6.357038875	0.156125336	2.643951874	9.322912903	9.691829632
6.367029875	0.138013	2.665057983	9.263037415	9.639784426
6.377020875	0.089214478	2.690205688	9.23549469	9.619746776
6.387011875	0.014968872	2.67598526	9.160350952	9.543225385
6.397002875	-0.112865295	2.681673431	9.078022156	9.466498678
6.406993875	-0.237106934	2.71220993	8.953930206	9.35869481
6.416983875	-0.262554016	2.735261993	8.859177246	9.275538489
6.426974875	-0.220940552	2.803669739	8.7522995	9.193047659
6.436965875	-0.245339813	2.847678223	8.635392609	9.096123811
6.446956875	-0.283510437	2.901715851	8.557554474	9.040579164
6.456947875	-0.277073822	2.954106903	8.538544006	9.039372282
6.466938875	-0.248333588	3.01293457	8.561895447	9.079950327
6.476929875	-0.247136078	3.05858963	8.606951752	9.13759625
6.486920875	-0.211210785	3.171903992	8.629255371	9.196174922
6.496910875	-0.133971405	3.260519714	8.590635681	9.189557038
6.506901875	-0.068557434	3.323987732	8.480315094	9.108750664
6.516892875	-0.057779846	3.362906799	8.346792755	8.998968271
6.526883875	-0.028141479	3.465892639	8.245902557	8.944725413
6.536874875	0.050894165	3.622766418	8.249046021	9.00964966
6.546865875	0.143551483	3.779191132	8.29470108	9.116192113
6.556856875	0.2468367	3.90927063	8.347241821	9.220616641
6.566847875	0.351319427	4.005670166	8.439599762	9.348564754
6.576837875	0.4445755	4.099075928	8.607999573	9.544512952
6.586828875	0.474213867	4.157753906	8.796008606	9.740716798
6.596819875	0.438438263	4.173171844	8.990454254	9.92148472
6.606810875	0.394130402	4.123026123	9.167086945	10.0593323
6.616801875	0.303568726	4.026177521	9.338031464	10.1735486
6.62679325	0.253123627	3.914958801	9.429042206	10.21262997
6.63678425	0.247435455	3.835923157	9.472302246	10.22252614
6.64677525	0.226778412	3.789220276	9.522747345	10.2514553
6.65676525	0.194445648	3.754941559	9.620943146	10.32956641
6.66675625	0.234861603	3.706891479	9.773625641	10.45561871
6.67674725	0.3556604	3.649411011	9.976453857	10.62893817
6.68673825	0.495319977	3.624412994	10.14230896	10.78184319
6.69672925	0.568368073	3.654350739	10.23706192	10.88461108
6.70672025	0.602796478	3.69162323	10.2346669	10.89678174
6.71671125	0.643960876	3.703149261	10.1430574	10.8170982
6.72670225	0.598006439	3.785627747	9.967023468	10.67848987
6.73669225	0.521365814	3.92094635	9.578730927	10.36328755
6.74668325	0.542172546	3.896696777	9.147627411	9.957775057
6.75667425	0.635428619	3.788621521	8.878487091	9.673931754
6.76666525	0.74769516	3.76062973	8.887468414	9.679280905
6.77665625	0.926124115	3.804338837	9.126970367	9.931378955
6.78664725	1.088985443	3.804488525	9.533225555	10.32193837
6.79663825	1.289268951	3.677253113	10.08961853	10.81595151
6.80662925	1.446741486	3.520978088	10.71561676	11.37166611
6.81661925	1.575324097	3.364553375	11.46421005	12.05114009
6.82661025	1.665736084	3.265160065	12.09305237	12.63637062
6.83660125	1.563947754	3.122806091	12.44422211	12.9250344
6.84659225	1.393302612	2.914439392	12.3806044	12.79510119
6.85658325	1.281036072	2.658920746	11.87854843	12.23972327
6.86657425	1.132095795	2.487826538	11.02756805	11.36125781
6.87656525	0.910855865	2.435585175	10.12210098	10.45077327
6.88655625	0.735420685	2.415826263	9.322314148	9.658291836
6.89654725	0.580642548	2.340981903	8.542435913	8.876404304
6.90653725	0.407003632	2.227218475	7.882458344	8.201176966
6.91652825	0.233813782	2.151925049	7.308851166	7.622647549
6.92651925	0.069754944	2.123783569	6.847959595	7.170067853
6.93651025	-0.007634125	2.10147995	6.452631683	6.786216317
6.94650125	0.003592529	2.134411469	6.214177551	6.570519604
6.95649225	0.141156464	2.261946259	6.324498138	6.71830356
6.96648325	0.370479584	2.544708252	6.865323486	7.331129639
6.97647425	0.653391266	2.735411682	7.65702713	8.157172408
6.98646425	1.078656921	2.794688416	8.42927124	8.945747467
6.99645525	1.46844635	2.852767639	9.044940948	9.597164928
7.00644625	1.756896515	2.915337524	9.591304779	10.17737715
7.01643725	1.969604187	2.917133789	9.954599304	10.55855376
7.02642825	1.981579285	2.862796783	10.24978546	10.82498794
7.03641925	1.81362854	2.79768219	10.50769913	11.02397456
7.04641025	1.560953979	2.73211853	10.68972061	11.14321209
7.05640125	1.230141907	2.643353119	10.71486832	11.10445712
7.06639125	0.911155243	2.622396698	10.49602341	10.85696439
7.07638225	0.629740448	2.696193237	9.946366425	10.32454532
7.08637325	0.450563049	2.806214447	9.273216248	9.698988925
7.09636425	0.460292816	2.98254776	8.610544281	9.124085348
7.10635525	0.531394958	3.228336639	8.09232193	8.728700492
7.11634625	0.740360413	3.442690887	7.718848572	8.484154487
7.12633725	1.057999878	3.649710388	7.434290314	8.349156971
7.13632825	1.26951004	3.884272614	7.330256653	8.392371064
7.14631825	1.364113312	4.099375305	7.518115997	8.671087081
7.15630925	1.431173859	4.204456787	7.97526535	9.128558095
7.16630025	1.498384094	4.111500092	8.580756226	9.632183828
7.17629125	1.397643585	3.920646973	9.101672974	10.00826315
7.18628225	1.224004669	3.758384399	9.397158508	10.19461764
7.19627325	1.099613342	3.688479767	9.300908661	10.06583004
7.20626425	0.92208252	3.568878479	9.133556671	9.849314049
7.21625525	0.684825897	3.486100616	8.960666199	9.639264637
7.22624525	0.392483826	3.518283691	8.826844482	9.510286389
7.23623625	0.180973663	3.570225677	8.630901947	9.341934022
7.24622725	0.052989807	3.57696167	8.371790771	9.104083887
7.25621825	-0.046553192	3.536096649	8.071964264	8.812647377
7.26620925	-0.164657593	3.516487427	7.846533051	8.60005098
7.27620025	-0.270487518	3.547323303	7.794141998	8.567690214
7.28619125	-0.227826233	3.595373383	7.891589355	8.67500992
7.29618225	-0.15447876	3.660188599	8.130043488	8.917311892
7.30617225	-0.047601013	3.748654633	8.43630661	9.231790001
7.31616325	0.089513855	3.844754791	8.728498993	9.53817838
7.32615425	0.23396347	3.957620087	8.989107056	9.824537715
7.33614525	0.46568161	4.036206665	9.120234375	9.984312628
7.34613625	0.665516052	4.129911804	9.219627686	10.12425888
7.35612725	0.731079712	4.187991028	9.27875473	10.20632332
7.36611825	0.73946228	4.213138733	9.295370178	10.23236284
7.37610925	0.693657532	4.127666473	9.325008545	10.22128053
7.38609925	0.549058228	3.991749115	9.399104462	10.22637231
7.39609025	0.412392426	3.832630005	9.51511322	10.26627975
7.40608125	0.223335571	3.655847626	9.690847778	10.35990499
7.41607225	0.132624207	3.470083923	9.889784088	10.48174131
7.42606325	0.01407074	3.354224854	10.11267059	10.65444174
7.43605425	-0.12049942	3.338657227	10.33675461	10.86322457
7.44604525	-0.188158722	3.32069458	10.44767395	10.96431973
7.45603625	-0.233065338	3.330274658	10.38046371	10.90408527
7.46602725	-0.239651642	3.327580261	10.12644196	10.66185021
7.47601725	-0.332907715	3.4212854	9.69069809	10.28229793
7.48600825	-0.482147369	3.505111084	9.220825195	9.876329636
7.49599925	-0.55579422	3.536994781	9.007668457	9.693158945
7.50599025	-0.458945618	3.529061279	8.892408142	9.578090998
7.51598125	-0.269589386	3.555107117	8.800050201	9.494859061
7.52597225	-0.033530273	3.609144745	8.812923431	9.523374899
7.53596325	0.312699738	3.652554474	9.121731262	9.830814642
7.54595425	0.659528503	3.622167664	9.881102142	10.54472645
7.55594425	0.927471313	3.505709839	10.82878143	11.41983852
7.56593525	0.970132599	3.452420654	11.72856033	12.26456249
7.57592625	0.860410767	3.405418396	12.45829285	12.94396546
7.58591725	0.617915039	3.289259949	12.83206558	13.26133316
7.59590825	0.30895752	3.054697723	12.74883865	13.11333367
7.60589925	0.059276733	2.697989502	12.16190918	12.45771632
7.61589025	-0.11002121	2.325414276	11.25494522	11.49319138
7.625880917	-0.266445923	2.070195007	10.34364029	10.552137
7.635870917	-0.325872345	1.984722748	9.641899567	9.849443864
7.645861917	-0.333356781	2.056273956	9.142687683	9.376999915
7.655852917	-0.329614563	2.217638397	8.743767242	9.026629017
7.665843917	-0.316292267	2.436183929	8.40008194	8.751937473
7.675834917	-0.308209076	2.620001678	8.109536133	8.527835477
7.685825917	-0.327518921	2.744243317	7.899522858	8.369026312
7.695816917	-0.366737366	2.782264252	7.725883942	8.219779397
7.705807917	-0.440833282	2.730771332	7.592211914	8.080416313
7.715798917	-0.402962036	2.657124481	7.486681366	7.954438182
7.725788917	-0.317190399	2.569706268	7.36333786	7.805302332
7.735779917	-0.374820557	2.511177979	7.353757782	7.779733852
7.745770917	-0.476608887	2.542313232	7.536228333	7.967763179
7.755761917	-0.622555389	2.544259186	7.919730835	8.341640517
7.765752917	-0.730930023	2.526446228	8.396938477	8.799191157
7.775743917	-0.805325317	2.475252686	8.863967285	9.238254205
7.785734917	-0.833317108	2.414479065	9.393116913	9.73420628
7.795725917	-0.656834106	2.406246185	9.89547226	10.2049901
7.805715917	-0.383352814	2.405946808	10.26879593	10.55384808
7.815706917	-0.187410278	2.452350311	10.46114594	10.74638167
7.825697917	-0.08307724	2.522105255	10.53973251	10.83761405
7.835688917	-0.098495178	2.531984711	10.51263885	10.81370536
7.845679917	-0.11930191	2.481689301	10.4416864	10.73321152
7.855670917	-0.179925842	2.402653656	10.3514241	10.62812772
7.865661917	-0.223036194	2.364183655	10.23272095	10.50465075
7.875652917	-0.191601563	2.406994629	10.09231293	10.37714385
7.885642917	-0.151335297	2.451601868	9.890233154	10.19068035
7.895633917	-0.091609497	2.566562805	9.70701416	10.04100398
7.905624917	-0.001347198	2.675236816	9.541159058	9.909117519
7.915615917	0.021555176	2.78480896	9.341025238	9.747326714
7.925606917	-0.004939728	2.853366394	9.061556396	9.500185709
7.935597917	0.012573853	2.868784332	8.785081329	9.241630571
7.945588917	-0.021704865	2.861299896	8.553662567	9.019570473
7.955579917	-0.071700897	2.889890442	8.291407928	8.780891368
7.965570917	-0.143551483	2.925366669	8.092471619	8.606188127
7.975560917	-0.146096191	2.979254608	8.006101227	8.543708736
7.985551917	-0.164358215	3.080593872	8.032895508	8.604910369
7.995542917	-0.212408295	3.191363525	8.127199402	8.733915992
8.005533917	-0.252375183	3.251538391	8.305778046	8.923124121
8.015524917	-0.237705688	3.266207886	8.585546265	9.188918468
8.025515917	-0.201930084	3.265309753	8.901090088	9.48327097
8.035506917	-0.126037903	3.263663177	9.108708344	9.676567086
8.045497917	-0.104333038	3.320993958	9.231004028	9.810775791
8.055487917	-0.076940002	3.37458252	9.303153992	9.896585327
8.065478917	0.013921051	3.458408203	9.394015045	10.01040957
8.075469917	0.123044128	3.569477234	9.431586914	10.08519406
8.085460917	0.164208527	3.659440155	9.412426758	10.1001111
8.095451917	0.168998566	3.746109924	9.431586914	10.14971585
8.105442917	0.246088257	3.798500977	9.477541351	10.21337159
8.115433917	0.365689545	3.816014557	9.540410614	10.28178635
8.125424917	0.437240753	3.849993896	9.652228088	10.40092013
8.135415917	0.454754333	3.924389191	9.777367859	10.545357
8.145405917	0.422122192	3.953578491	9.830657043	10.60428159
8.155396917	0.382155304	3.894301758	9.82047821	10.57134907
8.165387917	0.322279816	3.868106232	9.783505096	10.52535425
8.175378917	0.349223785	3.816613312	9.706864471	10.43607744
8.185369917	0.424068146	3.763623505	9.573791199	10.2957357
8.195360917	0.469124451	3.716022491	9.478289795	10.19151011
8.205351917	0.426612854	3.613336029	9.407936096	10.08699447
8.215342917	0.309406586	3.494932251	9.425150299	10.05702451
8.225332917	0.114212494	3.320844269	9.542805634	10.10476078
8.235323917	-0.121397552	3.132984924	9.686955872	10.18172117
8.245314917	-0.490529938	3.024610291	9.779164124	10.24797238
8.255305917	-0.883013763	3.01413208	9.600435791	10.10114216
8.265296917	-1.138682098	2.861150208	9.321116638	9.816618196
8.275287917	-1.269210663	2.702330475	9.020391998	9.501629203
8.285278917	-1.199904785	2.600542145	8.726403351	9.184372944
8.295269917	-0.893491974	2.491269379	8.522527313	8.924025035
8.305260917	-0.346679077	2.324665833	8.595575409	8.911126429
8.315250917	0.256865845	2.159559174	9.106463013	9.362550106
8.325241917	0.720002747	2.199376373	10.02016296	10.28393535
8.335232917	0.987646179	2.353106689	11.10690308	11.3963087
8.345223917	1.051263885	2.423161011	12.0156633	12.30256191
8.355214917	0.828826447	2.364183655	12.55229736	12.79986276
8.365205917	0.451910248	2.173929291	12.4602388	12.65652963
8.375196917	0.102237396	1.912423096	11.72975784	11.88507609
8.385187917	-0.165256348	1.777852936	10.70468948	10.85257793
8.395177917	-0.302221527	1.803898773	9.814340973	9.983319957
8.405168917	-0.235460358	1.951042786	9.048084412	9.259041044
8.415159917	-0.148790588	2.139800262	8.446335754	8.7144404
8.425150917	0.003143463	2.337688751	7.995772705	8.330496968
8.435141917	0.138462067	2.480342102	7.679031372	8.070860642
8.445132917	0.186212769	2.593806152	7.455995178	7.896478307
8.455123917	0.205821991	2.672093353	7.464078369	7.930631216
8.465114917	0.23516098	2.662363586	7.718848572	8.168482345
8.475105917	0.290994873	2.663860474	8.219257965	8.645058249
8.485095917	0.461640015	2.609074402	8.846603394	9.234867208
8.495086917	0.664019165	2.542163544	9.337881775	9.700492409
8.505077917	0.826581116	2.511926422	9.81	10.16017277
8.515068917	0.924926605	2.497556305	10.23975632	10.5804483
8.525059917	0.882564697	2.470911713	10.57640625	10.89700391
8.535050917	0.770298157	2.409090271	10.77983322	11.0725733
8.545041917	0.601149902	2.35071167	10.8769812	11.14432352
8.555032917	0.334853668	2.254461823	10.73687256	10.97611759
8.565022917	0.07259903	2.164199524	10.36594391	10.58970365
8.575013917	-0.184566193	2.076931	9.796827393	10.01626348
8.585004917	-0.336200867	2.063758392	9.222471771	9.45653823
8.594995917	-0.358504486	2.092947693	8.706494751	8.961696623
8.604986917	-0.358205109	2.210603027	8.254734192	8.553111318
8.614977917	-0.344433746	2.349813538	7.826923828	8.179302836
8.624968917	-0.289198608	2.471510468	7.538024597	7.938124127
8.634959917	-0.227826233	2.624342651	7.337741089	7.796250601
8.644950917	-0.15447876	2.777174835	7.289241943	7.801897965
8.654940917	-0.080083466	2.910547485	7.412735138	7.964065686
8.664931917	0.009580078	3.012485504	7.66526001	8.235980313
8.674922917	0.037721558	3.068469086	7.978408813	8.548212248
8.684913917	0.054786072	3.05858963	8.311615906	8.85668849
8.694904917	0.110170898	3.036286011	8.625812531	9.145261734
8.704895917	0.132624207	3.021915894	8.927584991	9.426098802
8.714886917	0.185913391	3.010389862	9.169332275	9.652650687
8.724877917	0.251027985	2.979553986	9.350006561	9.816485099
8.734868917	0.191302185	2.948269043	9.403295746	9.856513469
8.744858917	0.074245605	2.946173401	9.385782166	9.837599147
8.754849917	-0.017812958	2.95096344	9.295070801	9.752273772
8.764840917	-0.092058563	2.951711884	9.160949707	9.625179342
8.774831917	-0.126786346	2.925815735	9.004674683	9.468930174
8.784822917	-0.129480743	2.987487488	8.929530945	9.416919329
8.794813917	-0.105380859	3.08897644	8.906927948	9.427950257
8.804804917	-0.047451324	3.159330139	8.893755341	9.438352749
8.814795917	-0.065264282	3.26216629	8.892557831	9.4722528
8.824785917	-0.089364166	3.346590729	8.876092072	9.486446433
8.834776917	-0.094154205	3.382366333	8.806636505	9.434305144
8.844767917	-0.046553192	3.421135712	8.75110199	9.396175966
8.854758917	-0.009430389	3.476969604	8.712781677	9.38093658
8.864749917	0.008532257	3.550466766	8.752000122	9.444754798
8.874740917	0.014220428	3.636986847	8.863967285	9.581116406
8.884731917	-0.009729767	3.690874786	8.996441803	9.724125486
8.894722917	-0.073197784	3.657045135	9.176217957	9.878376032
8.904713917	-0.108224945	3.588936768	9.357041931	10.02229582
8.914703917	-0.045804749	3.472478943	9.509425049	10.12370351
8.924694917	-0.017064514	3.427422638	9.746681671	10.33176271
8.934685917	0.009580078	3.444487152	9.916578369	10.49776691
8.944676917	0.03742218	3.450325012	10.03842499	10.61490082
8.954667917	0.040266266	3.404669952	10.17045044	10.72527207
8.964658917	0.018112335	3.399281158	10.29005173	10.83700166
8.974649917	0.034727783	3.344046021	10.39198975	10.91683565
8.984640917	0.078586578	3.280128937	10.46099625	10.96347865
8.994631917	0.030985565	3.244802399	10.44947021	10.94171515
9.004621917	-0.117954712	3.258873138	10.33870056	10.84079779
9.014612917	-0.330512695	3.285218353	10.07779312	10.60489568
9.024603917	-0.455652466	3.199596405	9.934690704	10.44715826
9.034594917	-0.347277832	3.107088776	10.14769775	10.61839782
9.044585917	0.032931519	3.003354492	10.5744603	10.99274457
9.054576917	0.496367798	2.882855072	10.87458618	11.26116597
9.064567917	0.84484314	2.828218689	11.05256607	11.43992122
9.074558917	1.101259918	2.796334991	11.28263763	11.67605134
9.084548917	1.229393463	2.762505341	11.5844101	11.97252694
9.094539917	1.119671631	2.678080902	11.91522217	12.26369851
9.104530917	0.904718628	2.525697784	12.11565536	12.40914058
9.114521917	0.642314301	2.295626221	12.06116867	12.29448076
9.124512917	0.291893005	2.039059753	11.8007103	11.97913727
9.134503917	0.085322571	1.824705505	11.37379807	11.51955349
9.144494917	0.045355682	1.73638916	10.86740112	11.00534014
9.154485917	0.041763153	1.770069122	10.3023262	10.45336377
9.164476917	0.156873779	1.900747375	9.750723267	9.935494663
9.174466917	0.396974487	2.053579559	9.319470062	9.551298341
9.184457917	0.615819397	2.189496918	8.947194214	9.231761185
9.194448917	0.64470932	2.246827698	8.668324127	8.977957896
9.204439917	0.596359863	2.2056633	8.47028595	8.773046207
9.214430917	0.445174255	2.12138855	8.340505829	8.617569668
9.224421917	0.198038177	2.031874695	8.220305786	8.470015414
9.234412917	-0.020058289	1.961970062	8.114625549	8.348465528
9.244403917	-0.18726059	1.866768036	8.013735352	8.230421843
9.254394917	-0.327818298	1.835932159	7.945926361	8.161853801
9.264384917	-0.326920166	1.863325195	7.925718384	8.148366062
9.274375917	-0.21525238	1.944157104	7.89922348	8.137801425
9.284366917	-0.041763153	2.079326019	7.912845154	8.181592711
9.294357917	0.106877747	2.220931549	7.943082275	8.248425052
9.304348917	0.185314636	2.312840424	8.117020569	8.442132151
9.314339917	0.193697205	2.294728088	8.393345947	8.703536741
9.324330917	0.137264557	2.162552948	8.790021057	9.053173311
9.334321917	0.037721558	1.969604187	9.129664764	9.339782775
9.344312917	-0.092807007	1.842668152	9.426796875	9.605651377
9.354302917	-0.220940552	1.809437256	9.716594238	9.886105477
9.364293917	-0.156574402	1.84177002	9.985135803	10.15478062
9.374284917	-0.057929535	1.883084106	10.14664993	10.32007105
9.384275917	0.016016693	1.952240295	10.13287857	10.31924061
9.394266917	0.030835876	2.067051544	10.00564316	10.21697352
9.404257917	0.114362183	2.173929291	9.851314087	10.08897599
9.414248917	0.146096191	2.24308548	9.754764862	10.01040529
9.424239917	0.08068222	2.330952759	9.70940918	9.985613502
9.434230917	-0.048798523	2.385589142	9.709858246	9.998738121
9.444220917	-0.106129303	2.385738831	9.692194977	9.982066753
9.454211917	-0.172291718	2.395767975	9.612560577	9.908113316
9.464202917	-0.217797089	2.399510193	9.435029755	9.737806283
9.474193917	-0.276624756	2.419119415	9.231752472	9.547455876
9.484184917	-0.308059387	2.477647705	9.0283255	9.367192753
9.494175917	-0.320483551	2.509232025	8.925040283	9.276599545
9.504166917	-0.310753784	2.582878876	8.973838806	9.343319224
9.514157917	-0.266445923	2.661315765	9.094038849	9.479194988
9.524148917	-0.302969971	2.724933472	9.228309631	9.626980413
9.534138917	-0.338296509	2.803220673	9.354646912	9.771484509
9.544129917	-0.357905731	2.870131531	9.489815826	9.920804198
9.554120917	-0.342936859	2.930156708	9.585017853	10.02875821
9.564111917	-0.366887054	2.956651611	9.595795441	10.04767063
9.574102917	-0.426463165	2.963088226	9.574240265	10.03134285
9.584093917	-0.474513245	2.946173401	9.53621933	9.99222596
9.594084917	-0.514330444	2.952610016	9.48936676	9.951408102
9.604075917	-0.568218384	2.984643402	9.414672089	9.892776097
9.614065917	-0.629291382	3.039579163	9.326355743	9.829341818
9.624056917	-0.664468231	3.119363251	9.185947723	9.723866551
9.63404825	-0.677790527	3.21187088	9.05646698	9.633021785
9.64403925	-0.583636322	3.318898315	8.947493591	9.561033362
9.65403025	-0.441432037	3.439248047	8.891060944	9.543283192
9.66402125	-0.34278717	3.552712097	8.887318726	9.577249105
9.67401225	-0.191451874	3.686384125	8.951086121	9.682356349
9.68400325	0.006735992	3.813619537	9.011710052	9.785430876
9.69399425	0.116906891	3.914360046	9.095386047	9.902622337
9.70398425	0.15328125	3.91271347	9.180259552	9.980480313
9.71397525	0.170495453	3.852388916	9.31033905	10.07732019
9.72396625	0.157472534	3.744613037	9.377249908	10.09850188
9.73395725	0.095800781	3.624412994	9.377698975	10.05419243
9.74394825	-0.019758911	3.478316803	9.317524109	9.94561882
9.75393925	-0.073048096	3.339705048	9.273515625	9.856827982
9.76393025	-0.142503662	3.224444733	9.21798111	9.766705016
9.77392125	-0.242795105	3.191662903	9.191785583	9.733169256
9.78391225	-0.278121643	3.189417572	9.241781616	9.780606502
9.79390225	-0.257763977	3.117716675	9.341474304	9.851382731
9.80389325	-0.321681061	3.08313858	9.455537109	9.950698681
9.81388425	-0.522862701	3.229683838	9.363777924	9.918900146
9.82387525	-0.571960602	3.313359833	9.07398056	9.676911466
9.83386625	-0.498014374	3.316203918	8.904532928	9.515037226
9.84385725	-0.329464874	3.426075439	9.098679199	9.727923889
9.85384825	0.09595047	3.106340332	9.096733246	9.612965853
9.86383925	0.682430878	2.847528534	9.631720734	10.0669844
9.87383025	0.975222015	2.708318024	10.44153671	10.83105412
9.88382025	1.108894043	2.749332733	11.44145737	11.81928184
9.89381125	1.214125214	2.816692657	12.4960144	12.86694344
9.90380225	1.114881592	2.70053421	13.24879898	13.56711172
9.91379325	0.975371704	2.376308441	13.43740677	13.68071973
9.92378425	0.738115082	2.059567108	13.07950104	13.26122083
9.93377525	0.478255463	1.857936401	12.27627136	12.42527644
9.94376625	0.254171448	1.792672119	11.30509094	11.44916406
9.95375725	0.076940002	1.837279358	10.2532283	10.41682321
9.96374825	0.020956421	1.954335938	9.313183136	9.516052136
9.97373825	0.038769379	2.138303375	8.6328479	8.893812864
9.98372925	0.163609772	2.256707153	8.227191467	8.532653443
9.99372025	0.371976471	2.283351746	7.988587646	8.316825974
10.00371125	0.531844025	2.277962952	7.883506165	8.223237971
10.01370225	0.643661499	2.281106415	7.845335541	8.195549789
10.02369325	0.781225433	2.34607132	7.845934296	8.226363035
10.03368425	0.897234192	2.425106964	7.958649902	8.368170723
10.04367525	1.005758514	2.524649963	8.191266174	8.630309911
10.05366625	1.149609375	2.581980743	8.449628906	8.909795448
10.06365625	1.290466461	2.605182495	8.740474091	9.211306468
10.07364725	1.379381561	2.600093079	9.014554138	9.482898493
10.08363825	1.407373352	2.526895294	9.275162201	9.715684918
10.09362925	1.406175842	2.385738831	9.541458435	9.935215616
10.10362025	1.355431366	2.191891937	9.783205719	10.11695105
10.11361125	1.22625	2.068398743	10.01851639	10.30303999
10.12360225	1.080453186	1.971849518	10.17299515	10.41851236
10.13359325	0.923280029	1.890568542	10.19919067	10.4139419
10.14358425	0.75937088	1.831441498	9.975855103	10.17096392
10.15357425	0.582289124	1.827250214	9.483977966	9.675936235
10.16356525	0.393381958	1.882485352	8.790320435	8.998235038
10.17355625	0.251027985	2.02424057	8.148754578	8.400164647
10.18354725	0.170495453	2.226170654	7.702532501	8.019595464
10.19353825	0.197888489	2.444416809	7.381001129	7.777757457
10.20352925	0.292192383	2.664459229	7.227719879	7.708738809
10.21352025	0.406554565	2.89243515	7.187902679	7.758699159
10.22351125	0.479153595	3.093467102	7.250622253	7.897509097
10.23350225	0.504750366	3.20723053	7.414232025	8.093944473
10.24349225	0.508043518	3.224893799	7.673941956	8.339510379
10.25348325	0.494122467	3.214714966	8.010292511	8.645422803
10.26347425	0.481847992	3.165766754	8.292006683	8.888848714
10.27346525	0.425115967	3.103795624	8.554261322	9.10986595
10.28345625	0.374521179	3.071612549	8.798852692	9.327104505
10.29344725	0.32527359	3.090772705	8.989256744	9.511330908
10.30343825	0.316591644	3.076701965	9.102571106	9.613694711
10.31342925	0.295485535	3.074306946	9.17232605	9.678338704
10.32342025	0.252075806	3.102598114	9.200467529	9.712788478
10.33341025	0.135617981	3.092119904	9.209448853	9.715634097
10.34340125	-0.047301636	3.110232239	9.243128815	9.752497747
10.35339225	-0.188757477	3.105741577	9.304201813	9.810679462
10.36338325	-0.25626709	3.054548035	9.330846405	9.821437326
10.37337425	-0.30416748	3.059936829	9.379944305	9.871123868
10.38336525	-0.383203125	3.115321655	9.452693024	9.96019473
10.39335625	-0.391436005	3.207380219	9.472601624	10.00853094
10.40334725	-0.341889038	3.27503952	9.443562012	10.0011817
10.41333825	-0.338895264	3.363804932	9.322314148	9.916429533
10.42332925	-0.359103241	3.404520264	9.180259552	9.797799692
10.43331925	-0.358354797	3.433260498	9.059011688	9.694399856
10.44331025	-0.366737366	3.439547424	8.999884644	9.641727354
10.45330125	-0.365240479	3.419788513	9.038504333	9.67072462
10.46329225	-0.428409119	3.426823883	9.180558929	9.808634898
10.47328325	-0.444725189	3.458557892	9.381291504	10.00839815
10.48327425	-0.451910248	3.453917542	9.540111237	10.15615536
10.49326525	-0.490080872	3.426225128	9.663903809	10.26500047
10.50325625	-0.469423828	3.382815399	9.805958405	10.38367079
10.51324725	-0.415236511	3.327580261	9.961484985	10.51077518
10.52323725	-0.31479538	3.303929443	10.09096573	10.62274142
10.53322825	-0.261356506	3.328628082	10.26744873	10.79669281
10.54321925	-0.42361908	3.458857269	10.24349854	10.82000041
10.55321025	-0.639919281	3.559597778	9.967322845	10.60319564
10.56320125	-0.581241302	3.473826141	9.768236847	10.38382206
10.57319225	-0.215701447	3.151696014	9.828262024	10.32349017
10.58318325	0.294138336	2.730172577	10.26265869	10.62367747
10.59317425	0.556392975	2.460882568	11.25928619	11.53850258
10.60316525	0.517024841	2.34951416	12.34946915	12.58161038
10.61315525	0.35341507	2.260149994	13.35268295	13.54722563
10.62314625	0.253123627	2.14473999	14.06460251	14.22944219
10.63313737	0.162711639	2.022593994	14.28404617	14.4274508
10.64312837	0.01526825	1.771116943	13.83737503	13.95027011
10.65311937	-0.189954987	1.455273743	12.62295044	12.70798105
10.66311037	-0.48678772	1.367705841	11.15869537	11.25273584
10.67310137	-0.675844574	1.460812225	9.870025177	10.00040675
10.68309237	-0.640518036	1.642684021	8.795709229	8.970684198
10.69308337	-0.558488617	1.866169281	8.042176208	8.274726309
10.70307338	-0.405207367	2.084565125	7.542215881	7.835472237
10.71306438	-0.234562225	2.277364197	7.326813812	7.676171426
10.72305538	-0.15208374	2.392175446	7.250322876	7.636282776
10.73304638	-0.214204559	2.406395874	7.315437469	7.704041152
10.74303738	-0.447868652	2.305505676	7.464527435	7.825286741
10.75302838	-0.662073212	2.093396759	7.760611725	8.065218241
10.76301938	-0.832119598	1.872306519	8.184829559	8.437380496
10.77301038	-0.958456879	1.699266357	8.495882721	8.717004586
10.78300138	-1.024918671	1.606609039	8.650960236	8.85837253
10.79299137	-1.04138443	1.626218262	8.66682724	8.879355932
10.80298237	-0.993334351	1.721420288	8.64811615	8.873551368
10.81297337	-1.025068359	1.823208618	8.624016266	8.874035799
10.82296437	-1.034498749	1.857936401	8.627908173	8.886107965
10.83295538	-0.949176178	1.825453949	8.710985413	8.950669494
10.84294638	-0.80038559	1.788031769	8.848249969	9.062516329
10.85293738	-0.655187531	1.771116943	9.068442078	9.262978335
10.86292838	-0.618064728	1.819017334	9.405541077	9.599741195
10.87291938	-0.595461731	1.864073639	9.868378601	10.06052888
10.88291038	-0.659827881	1.883982239	10.34798126	10.53876075
10.89290038	-0.762364655	1.818568268	10.74914703	10.92852014
10.90289138	-0.898731079	1.747915192	10.97532669	11.14992023
10.91288238	-0.986748047	1.720522156	10.97368011	11.15148077
10.92287338	-0.997076569	1.739382935	10.74929672	10.93466939
10.93286438	-1.048569489	1.813478851	10.38300842	10.5922173
10.94285538	-1.041983185	1.889520721	9.982890472	10.2134284
10.95284638	-0.95591217	1.996548157	9.635313263	9.886315507
10.96283738	-0.86235672	2.120041351	9.372160492	9.647571027
10.97282838	-0.867146759	2.239642639	9.198222198	9.506588992
10.98281838	-0.918040924	2.291884003	9.09269165	9.421919808
10.99280938	-1.054407349	2.312690735	9.044342194	9.39470271
11.00280038	-1.253942413	2.35190918	9.066795502	9.450430098
11.01279138	-1.445244598	2.363884277	9.092991028	9.505743877
11.02278238	-1.532363434	2.359692993	9.087602234	9.513191004
11.03277338	-1.531315613	2.35071167	9.010662231	9.437309294
11.04276438	-1.448088684	2.380350037	8.871302032	9.298549719
11.05275538	-1.376836853	2.480791168	8.721463623	9.171364799
11.06274638	-1.341660004	2.54605545	8.663234711	9.128750494
11.07273638	-1.265318756	2.637215881	8.720116425	9.197628478
11.08272738	-1.180744629	2.722239075	8.819360046	9.305152072
11.09271838	-1.165626068	2.776875458	8.903485107	9.399030189
11.10270938	-1.202449493	2.780467987	8.999734955	9.495899971
11.11270038	-1.262175293	2.787952423	9.123976593	9.623549971
11.12269137	-1.359772339	2.778072968	9.260941772	9.763796021
11.13268237	-1.466051331	2.769989777	9.394913177	9.903865078
11.14267337	-1.54448822	2.717149658	9.488618317	9.99010629
11.15266437	-1.594933319	2.732417908	9.533524933	10.04480052
11.16265537	-1.567839661	2.827919312	9.448352051	9.98632091
11.17264538	-1.463656311	2.932402039	9.247918854	9.811486872
11.18263638	-1.333726501	3.064726868	9.059610443	9.656496183
11.19262738	-1.296154633	3.200793915	8.925639038	9.570377775
11.20261838	-1.25079895	3.251837769	8.918154602	9.574571969
11.21260938	-1.176104279	3.235521698	9.021439819	9.655992872
11.22260038	-1.195713501	3.250041504	9.140891418	9.774886008
11.23259138	-1.286424866	3.219505005	9.266480255	9.893824222
11.24258238	-1.333277435	3.179837494	9.416019287	10.02748296
11.25257338	-1.326092377	3.182082825	9.586065674	10.1870912
11.26256337	-1.313518524	3.164269867	9.715845795	10.30221307
11.27255437	-1.22160965	3.133883057	9.807155914	10.36792459
11.28254537	-1.113684082	3.124302979	9.890233154	10.43159974
11.29253637	-0.996028748	3.107388153	9.95744339	10.47848335
11.30252737	-0.84364563	3.033142548	10.08408005	10.56410725
11.31251837	-0.744851074	3.014431458	10.24170227	10.70205894
11.32250938	-0.714763641	3.042572937	10.37597305	10.83646409
11.33250038	-0.825533295	3.186872864	10.40426422	10.91267052
11.34249138	-0.995130615	3.29494812	10.15862503	10.725886
11.35248238	-1.074315948	3.174598389	9.906698914	10.45824617
11.36247238	-0.917741547	2.886297913	9.943971405	10.39497631
11.37246338	-0.728235626	2.689606934	10.24349854	10.615723
11.38245438	-0.621208191	2.614163818	10.80812439	11.13711385
11.39244538	-0.396226044	2.501448212	11.44864243	11.72542757
11.40243638	-0.116308136	2.390828247	11.97614548	12.21301141
11.41242738	0.188308411	2.399510193	12.41054214	12.64178253
11.42241838	0.545765076	2.434537354	12.67070114	12.91400399
11.43240938	0.917591858	2.399510193	12.64705032	12.90532858
11.44240038	1.156345367	2.328258362	12.32327362	12.59448269
11.45239037	1.216071167	2.251468048	11.75580368	12.03107882
11.46238138	1.079105988	2.166444855	10.97562607	11.23932029
11.47237238	0.830473022	2.158960419	10.21191422	10.47062498
11.48236338	0.605490875	2.143243103	9.518855438	9.775925483
11.49235438	0.407752075	2.039209442	8.81771347	9.059619625
11.50234538	0.14280304	1.93293045	8.061186676	8.290919337
11.51233638	-0.126037903	1.80315033	7.335346069	7.554769263
11.52232738	-0.291443939	1.668280792	6.700516205	6.911224044
11.53231838	-0.419577484	1.553469543	6.236930237	6.441165397
11.54230938	-0.577499084	1.494043121	6.006110229	6.216030094
11.55229938	-0.689915314	1.487456818	6.115832062	6.33181749
11.56229038	-0.655935974	1.589544525	6.569688263	6.791001964
11.57228138	-0.530646515	1.733245697	7.300019531	7.521702701
11.58227238	-0.158670044	1.860331421	8.099506989	8.311920514
11.59226338	0.334404602	1.927391968	8.694369965	8.911718988
11.60225438	0.794398041	1.946103058	9.1570578	9.395216491
11.61224537	1.203946381	2.046095123	9.697284393	9.983652475
11.62223637	1.434017944	2.258952484	10.31460068	10.65599648
11.63222775	1.485061798	2.460882568	10.92069031	11.2926006
11.64221775	1.440604248	2.563419342	11.44909149	11.82066645
11.65220875	1.342258759	2.500550079	11.76897629	12.10632942
11.66219975	1.168470154	2.307900696	11.75894714	12.04012317
11.67219075	0.917891235	2.081721039	11.38487503	11.60997271
11.68218175	0.598305817	1.928439789	10.69361252	10.88256397
11.69217275	0.300574951	1.876946869	9.834099884	10.01612677
11.70216375	0.138013	1.870510254	9.106313324	9.297461941
11.71215475	0.063468018	1.939666443	8.435707855	8.656067301
11.72214575	0.001496887	2.01376236	7.830666046	8.085454335
11.73213675	-0.021255798	2.094145203	7.333549805	7.626719391
11.74212675	-0.009580078	2.168390808	6.976841583	7.306047423
11.75211775	0.010927277	2.22781723	6.71159317	7.071688052
11.76210875	0.038769379	2.314636688	6.5466362	6.943881594
11.77209975	0.049696655	2.391427002	6.530170441	6.954460356
11.78209075	0.098195801	2.502496033	6.74677002	7.196598815
11.79208175	0.278720398	2.596201172	7.192992096	7.652259854
11.80207275	0.547261963	2.646346893	7.752229156	8.2097323
11.81206375	0.801882477	2.69349884	8.21985672	8.687001554
11.82205475	0.977467346	2.750679932	8.584648132	9.067406799
11.83204475	1.119521942	2.770289154	8.883576508	9.372607051
11.84203575	1.182391205	2.761906586	9.153315582	9.633761628
11.85202675	1.144669647	2.765798492	9.428293762	9.892048987
11.86201775	1.032852173	2.765349426	9.640702057	10.08251344
11.87200875	0.886306915	2.765948181	9.816137238	10.2368237
11.88199975	0.766705627	2.683769073	9.907597046	10.29324697
11.89199075	0.685274963	2.619103546	9.929750977	10.29219411
11.90198175	0.607137451	2.559527435	9.883646851	10.22772075
11.91197275	0.555644531	2.480491791	9.853409729	10.17601413
11.92196375	0.528401184	2.443967743	9.831555176	10.1445386
11.93195375	0.509690094	2.488125916	9.813293152	10.13663046
11.94194475	0.572409668	2.52390152	9.75147171	10.08905012
11.95193575	0.698896637	2.532134399	9.692194977	10.04185265
11.96192675	0.843795319	2.544109497	9.692494354	10.05628811
11.97191775	0.981508942	2.630030823	9.698481903	10.09658225
11.98190875	1.035396881	2.687361603	9.69069809	10.10957905
11.99189975	1.035097504	2.681224365	9.687255249	10.10461801
12.00189075	0.987197113	2.642454987	9.701625366	10.1033985
12.01188175	0.925974426	2.533032532	9.725874939	10.09288491
12.02187275	0.872535553	2.398612061	9.77138031	10.09923419
12.03186275	0.769998779	2.283501434	9.838291168	10.12912879
12.04185375	0.715661774	2.21733902	9.868228912	10.13956143
12.05184475	0.693956909	2.150428162	9.861343231	10.11691691
12.06183575	0.70443512	2.106569366	9.885293427	10.13177622
12.07182675	0.702788544	2.066602478	9.940827942	10.17766268
12.08181775	0.698896637	1.991009674	10.00863693	10.2286553
12.09180875	0.711769867	1.912273407	10.0953067	10.29944772
12.10179975	0.667611694	1.870061188	10.1405127	10.33309402
12.11179075	0.494571533	1.898202667	10.13317795	10.32129206
12.12178075	0.225580902	2.023791504	9.968071289	10.17394044
12.13177175	0.082328796	2.009720764	9.722581787	9.928461723
12.14176275	0.231867828	1.710493011	9.801916809	9.952744454
12.15175375	0.761017456	1.183439026	10.45605652	10.55029826
12.16174475	1.231040039	0.936302948	11.63455582	11.7369081
12.17173575	1.170565796	1.091979218	12.92502228	13.02377993
12.18172675	1.07880661	1.295555878	14.0500827	14.15086968
12.19171775	0.922830963	1.425036621	14.72981918	14.8273369
12.20170875	0.811462555	1.199755096	14.7627507	14.83363381
12.21169975	0.792302399	0.732127533	13.98257309	14.02412578
12.22168975	0.729283447	0.302969971	12.76171188	12.78612276
12.23168075	0.568218384	0.14744339	11.56614807	11.58103592
12.24167175	0.420176239	0.210462341	10.57535843	10.58579465
12.25166275	0.416434021	0.35925293	9.740245056	9.755760028
12.26165375	0.464933167	0.545465698	8.988807678	9.017336589
12.27164475	0.445623322	0.745150452	8.313711548	8.358925113
12.28163575	0.380209351	0.910556488	7.770640869	7.83304103
12.29162675	0.274529114	0.950673065	7.370223541	7.436352638
12.30161775	0.135168915	0.887803802	7.119345245	7.175760792
12.31160875	-0.106578369	0.819695435	7.000941467	7.049570269
12.32159875	-0.46104126	0.73946228	7.005432129	7.059422272
12.33158975	-0.827479248	0.605041809	7.166347504	7.23929099
12.34158075	-1.059047699	0.399968262	7.525600433	7.610270595
12.35157175	-1.126257935	0.202828217	8.051007843	8.131932335
12.36156275	-1.059197388	0.127235413	8.70305191	8.768192545
12.37155375	-0.872385864	0.192200317	9.276659088	9.319570907
12.38154475	-0.561033325	0.325423279	9.751172333	9.772718177
12.39153575	-0.135617981	0.481398926	10.18467087	10.19694355
12.40152675	0.282163239	0.657283173	10.61053528	10.63461782
12.41151675	0.543220367	0.875679016	11.00721039	11.05534181
12.42150775	0.705632629	1.055006104	11.36466705	11.43532302
12.43149875	0.758921814	1.153201904	11.61719193	11.69893094
12.44148975	0.674347687	1.170865173	11.68380341	11.76167216
12.45148075	0.459394684	1.107397156	11.51779861	11.58002836
12.46147175	0.1579216	1.020877075	11.12621292	11.17406565
12.47146275	-0.106129303	0.954265594	10.62505508	10.66834953
12.48145375	-0.29129425	0.97701828	10.17598892	10.22693344
12.49144475	-0.337398376	1.04961731	9.820927277	9.882618415
12.50143575	-0.339643707	1.188678131	9.466464386	9.546845632
12.51142575	-0.368982697	1.306034088	9.094188538	9.194897413
12.52141675	-0.411045227	1.421444092	8.725954285	8.850521999
12.53140775	-0.506995697	1.54104538	8.440797272	8.595284991
12.54139875	-0.630488892	1.640289001	8.331225128	8.514539118
12.55138975	-0.769100647	1.685195618	8.37777832	8.580126436
12.56138075	-0.91145462	1.642384644	8.550668793	8.754548169
12.57137175	-1.063987427	1.575174408	8.818761292	9.021296713
12.58136275	-1.190773773	1.512754211	9.129664764	9.330441908
12.59135375	-1.235381012	1.46021347	9.421108704	9.613307382
12.60134475	-1.252146149	1.436412964	9.670939178	9.856886769
12.61133475	-1.179098053	1.433119812	9.895921326	10.06843401
12.62132575	-1.063837738	1.470392303	10.0342337	10.19704125
12.63131638	-0.947230225	1.473835144	10.1869162	10.3364741
12.64130738	-0.803379364	1.528022461	10.28286667	10.42677409
12.65129838	-0.718505859	1.661694489	10.39977356	10.5561721
12.66128938	-0.616268463	1.772015076	10.50231033	10.66856816
12.67128038	-0.52181488	1.852098541	10.61367874	10.78669255
12.68127138	-0.457299042	1.912123718	10.75453583	10.93276637
12.69126238	-0.342038727	1.959125977	10.82054855	11.0017924
12.70125338	-0.224533081	1.901944885	10.70753357	10.87745763
12.71124338	-0.173040161	1.883084106	10.44408142	10.61389586
12.72123437	-0.248183899	1.927242279	10.12973511	10.31442637
12.73122537	-0.288749542	1.979333954	9.819430389	10.02109537
12.74121637	-0.248782654	2.04175415	9.649084625	9.865874869
12.75120737	-0.07140152	2.116598511	9.643546143	9.87335149
12.76119837	0.075742493	2.198328552	9.734257507	9.979687098
12.77118937	0.119601288	2.357597351	9.808054047	10.0881363
12.78118037	0.140707397	2.484982452	9.859397278	10.16870941
12.79117138	0.135318604	2.572101288	9.861343231	10.19215907
12.80116238	0.056881714	2.622546387	9.797725525	10.14280092
12.81115238	-0.044307861	2.645897827	9.622589722	9.979828227
12.82114338	-0.112266541	2.634371796	9.432634735	9.794238948
12.83113438	-0.146994324	2.593207397	9.2857901	9.642210832
12.84112538	-0.123792572	2.575993195	9.288634186	9.640009885
12.85111638	-0.10059082	2.625989227	9.444160767	9.802964374
12.86110738	-0.102387085	2.663710785	9.616452484	9.979077945
12.87109838	-0.069754944	2.666554871	9.713899841	10.07349149
12.88108938	-0.004041595	2.691552887	9.750723267	10.11538815
12.89108038	0.022752686	2.728226624	9.697284393	10.07378096
12.90107037	-0.041463776	2.760110321	9.563612366	9.9540248
12.91106137	-0.193547516	2.840792542	9.277108154	9.704241269
12.92105238	-0.218545532	2.80471756	8.940458221	9.372619482
12.93104338	-0.108075256	2.637964325	8.605005798	9.000925554
12.94103438	-0.038320313	2.519710236	8.574768677	8.937397047
12.95102538	0.203426971	2.423310699	9.112450562	9.431361117
12.96101638	0.536035309	2.291135559	10.02555176	10.2979767
12.97100738	0.786913605	2.136806488	10.93266541	11.16728919
12.98099838	0.87403244	2.037862244	11.72332123	11.93118082
12.99098938	0.846789093	2.050436096	12.36413864	12.56157889
13.00097938	0.83780777	2.068997498	12.6898613	12.88469062
13.01097038	0.810265045	1.956132202	12.46547791	12.64401527
13.02096138	0.776734772	1.785786438	11.71598648	11.8767289
13.03095238	0.692310333	1.690883789	10.80438217	10.95778516
13.04094338	0.623004456	1.701212311	9.964778137	10.12813217
13.05093438	0.490529938	1.8194664	9.200766907	9.391761777
13.06092538	0.404758301	1.923200684	8.596922607	8.818707868
13.07091637	0.395327911	2.035467224	8.159981232	8.419305475
13.08090737	0.355959778	2.08980423	7.849526825	8.130747841
13.09089837	0.346080322	2.11315567	7.668403473	7.961759246
13.10088937	0.335452423	2.140548706	7.694748688	7.993974885
13.11087938	0.308658142	2.183659058	7.826923828	8.131689452
13.12087038	0.351618805	2.199526062	8.083639984	8.384914196
13.13086138	0.483045502	2.222727814	8.439150696	8.740315575
13.14085238	0.768501892	2.241139526	8.808881836	9.121935142
13.15084338	1.007554779	2.266885986	9.057065735	9.390653781
13.16083438	1.158890076	2.374362488	9.131760406	9.506296416
13.17082538	1.187330933	2.477198639	9.099577332	9.505186766
13.18081638	1.227148132	2.519410858	9.043444061	9.467692649
13.19080738	1.281335449	2.499502258	9.020841064	9.448010668
13.20079838	1.342408447	2.395318909	9.061706085	9.468586499
13.21078837	1.35842514	2.277364197	9.177864532	9.553266662
13.22077937	1.393152924	2.13426178	9.339228973	9.680761655
13.23077037	1.45213028	1.960024109	9.565558319	9.87169098
13.24076137	1.475781097	1.837578735	9.860445099	10.13819525
13.25075237	1.415306854	1.832040253	10.20697449	10.46622153
13.26074337	1.266216888	1.874851227	10.60275146	10.84143491
13.27073438	1.077459412	1.867666168	10.88162155	11.09318635
13.28072538	0.849034424	1.764680328	10.89344696	11.06806861
13.29071638	0.627794495	1.626068573	10.67834427	10.81967011
13.30070738	0.520916748	1.539997559	10.20113663	10.32986618
13.31069738	0.513731689	1.524878998	9.650431824	9.783660388
13.32068838	0.62599823	1.658251648	9.1371492	9.307479134
13.33067938	0.825084229	1.880838776	8.743168488	8.981164384
13.34067038	1.053509216	2.137554932	8.448132019	8.777810511
13.35066138	1.231040039	2.389481049	8.194409637	8.624003048
13.36065238	1.29405899	2.546953583	8.013136597	8.507168703
13.37064338	1.326242065	2.571053467	7.904911652	8.41765182
13.38063438	1.291065216	2.528242493	7.9308078	8.423572393
13.39062538	1.226848755	2.474354553	8.078101501	8.537172377
13.40061537	1.194216614	2.468965759	8.18707489	8.634242323
13.41060638	1.240919495	2.55892868	8.253985748	8.730193464
13.42059738	1.236129456	2.695295105	8.239915009	8.757215944
13.43058838	1.189276886	2.817291412	8.262518005	8.810261869
13.44057938	1.200204163	2.97206955	8.471333771	9.057438009
13.45057038	1.217268677	2.999312897	8.615484009	9.203487686
13.46056138	1.060694275	2.888692932	8.75693985	9.281897152
13.47055238	1.088386688	2.827170868	8.897946625	9.399517798
13.48054338	1.088835754	2.768792267	9.008716278	9.48729376
13.49053438	1.010847931	2.753673706	9.109905853	9.570523344
13.50052538	0.961001587	2.814896393	9.238638153	9.705647875
13.51051538	0.965791626	2.905458069	9.365723877	9.8534879
13.52050638	1.009500732	2.992576904	9.428443451	9.943347231
13.53049738	1.095721436	3.082390137	9.468110962	10.01732797
13.54048838	1.127305756	3.167113953	9.473649445	10.05243567
13.55047938	1.146765289	3.260669403	9.455537109	10.06748318
13.56047037	1.229992218	3.336860962	9.414821777	10.06411402
13.57046137	1.15604599	3.319646759	9.376800842	10.0140347
13.58045237	1.085991669	3.27384201	9.388925629	10.00246689
13.59044337	1.054107971	3.209775238	9.42155777	10.00897355
13.60043437	0.952768707	3.147804108	9.421857147	9.979370271
13.61042438	0.841549988	3.1147229	9.388326874	9.927254737
13.62041538	0.804576874	3.10184967	9.364077301	9.897209658
13.63040638	0.788111115	3.061284027	9.345216522	9.865376367
13.64039754	0.781075745	3.017425232	9.319919128	9.827300082
13.65038854	0.730480957	2.993924103	9.31617691	9.812662034
13.66037954	0.712967377	2.968177643	9.345815277	9.831717256
13.67037054	0.742755432	2.954256592	9.388027496	9.869872234
13.68036154	0.789158936	2.967878265	9.468260651	9.953845135
13.69035254	0.893342285	2.95919632	9.579329681	10.06570715
13.70034354	0.993034973	2.973865814	9.706714783	10.20050529
13.71033354	1.029259644	3.009342041	9.834099884	10.33561974
13.72032454	1.019230499	2.971919861	9.949060822	10.43335755
13.73031554	1.00515976	2.906805267	10.11446686	10.57176914
13.74030654	0.924776917	2.846031647	10.25996429	10.68746817
13.75029754	0.734971619	2.863395538	10.23975632	10.65794665
13.76028854	0.560883636	2.897973633	9.980046387	10.40740926
13.77027954	0.501008148	2.814896393	9.624535675	10.04023594
13.78027054	0.478105774	2.699187012	9.439819794	9.82977077
13.79026154	0.570463715	2.67598526	9.277856598	9.672897653
13.80025254	0.730780334	2.574346619	9.341623993	9.717367917
13.81024254	1.02027832	2.488574982	9.674681396	10.0415852
13.82023354	1.188678131	2.455793152	10.40860519	10.76024804
13.83022454	1.082249451	2.476749573	11.23847946	11.55893477
13.84021554	0.819545746	2.460283813	11.87735092	12.15714262
13.85020654	0.670605469	2.403551788	12.35860016	12.60800423
13.86019754	0.508043518	2.31673233	12.45814316	12.68190395
13.87018854	0.404309235	2.135159912	12.08362198	12.27747099
13.88017954	0.433049469	1.987417145	11.45762375	11.63677364
13.89017054	0.494721222	1.989662476	10.82219513	11.01469079
13.90016154	0.500409393	2.079176331	10.35860916	10.57705855
13.91015154	0.512683868	2.217937775	10.19963974	10.4505858
13.92014254	0.526006165	2.361788635	10.2518811	10.53355563
13.93013354	0.454155579	2.43498642	10.31804352	10.611194
13.94012454	0.343236237	2.372566223	10.22358994	10.50088914
13.95011554	0.259410553	2.229164429	10.02929398	10.27731509
13.96010654	0.181123352	2.050136719	9.787097626	10.00115724
13.97009754	0.120798798	1.952389984	9.543554077	9.741963017
13.98008854	-0.011975098	1.918560333	9.327852631	9.523121959
13.99007954	-0.097597046	1.8791922	9.037306824	9.231132278
14.00007054	-0.152981873	1.885479126	8.729097748	8.931717779
14.01006054	-0.24099884	1.877545624	8.36730011	8.578751024
14.02005154	-0.330213318	1.852098541	8.051157532	8.268037702
14.03004254	-0.3463797	1.885778503	7.835605774	8.066774901
14.04003354	-0.330213318	1.942061462	7.697742462	7.94580912
14.05002454	-0.364791412	2.08276886	7.656877441	7.943473488
14.06001554	-0.409398651	2.24069046	7.749235382	8.077063204
14.07000654	-0.44233017	2.355202332	7.98469574	8.336546051
14.07999754	-0.436342621	2.39636673	8.340056763	8.688470245
14.08998854	-0.377215576	2.347268829	8.750952301	9.068138107
14.09997954	-0.264499969	2.238445129	9.119336243	9.393768697
14.10997054	-0.194595337	2.177970886	9.376800842	9.628386083
14.11996054	-0.146844635	2.160906372	9.551038513	9.793539522
14.12995154	-0.059875488	2.193688202	9.735005951	9.979288244
14.13994254	0.009879456	2.259700928	9.926158447	10.1801261
14.14993354	-0.067509613	2.324067078	10.14350647	10.40656374
14.15992454	-0.203876038	2.41852066	10.3674408	10.64775264
14.16991554	-0.29129425	2.398911438	10.41534119	10.69200451
14.17990654	-0.296383667	2.342778168	10.21520737	10.48460368
14.18989754	-0.32766861	2.345173187	9.797575836	10.07966747
14.19988854	-0.413889313	2.434537354	9.287137299	9.60984889
14.20987954	-0.458197174	2.587668915	8.793463898	9.177743861
14.21986954	-0.452958069	2.742147675	8.417745209	8.864704128
14.22986054	-0.387843475	2.830763397	8.204289093	8.687577539
14.23985154	-0.307310944	2.906206512	8.132438507	8.641587376
14.24984254	-0.279019775	3.019071808	8.180488586	8.724278774
14.25983354	-0.283510437	3.147205353	8.286468201	8.868530597
14.26982454	-0.324824524	3.216361542	8.422385559	9.021478318
14.27981554	-0.345631256	3.179238739	8.606802063	9.18172433
14.28980654	-0.426163788	3.10184967	8.815617828	9.355116496
14.29979754	-0.525257721	2.96967453	9.016350403	9.507335961
14.30978854	-0.543370056	2.88075943	9.193881226	9.649947041
14.31977854	-0.503403168	2.871179352	9.367520142	9.810582002
14.32976954	-0.3264711	2.9767099	9.545200653	10.00391127
14.33976054	-0.10642868	3.098706207	9.697434082	10.18103801
14.34975154	0.067958679	3.231929169	9.809550934	10.32846911
14.35974254	0.202678528	3.349434814	9.856553192	10.41208111
14.36973354	0.289497986	3.490740967	9.852361908	10.45648683
14.37972454	0.36973114	3.578907623	9.802665253	10.44210357
14.38971554	0.447569275	3.601360931	9.721833344	10.37709797
14.39970654	0.470022583	3.595523071	9.614506531	10.27557508
14.40969754	0.460891571	3.567381592	9.466913452	10.12724458
14.41968854	0.486188965	3.542233887	9.315428467	9.978026265
14.42967854	0.516126709	3.550766144	9.179660797	9.855987994
14.43966954	0.52885025	3.580703888	9.031468964	9.729776696
14.44966054	0.523910522	3.603456573	8.918753357	9.633459553
14.45965154	0.539478149	3.625311127	8.819060669	9.550379496
14.46964254	0.582887878	3.583847351	8.735534363	9.460088832
14.47963354	0.530347137	3.557651825	8.750203857	9.460667109
14.48962454	0.53468811	3.56408844	8.801547089	9.510827984
14.49961554	0.591270447	3.533402252	8.903036041	9.596800663
14.50960654	0.618364105	3.485501862	9.00961441	9.680095517
14.51959754	0.481249237	3.571722565	8.985215149	9.681058526
14.52958754	0.374670868	3.576063538	8.831035767	9.534977787
14.53957854	0.395028534	3.462449799	8.732690277	9.402365959
14.54956954	0.472866669	3.357368317	8.87504425	9.500628155
14.55956054	0.796493683	3.231929169	9.296268311	9.874227709
14.56955154	1.176104279	3.092868347	9.897418213	10.43589685
14.57954254	1.470392303	3.067271576	10.54751633	11.08243245
14.58953354	1.693578186	3.131637726	11.30000153	11.84759032
14.59952454	1.719025269	3.21890625	11.88453598	12.43215994
14.60951554	1.808688812	3.227438507	12.33644623	12.87927094
14.61950654	1.926344147	3.081042938	12.33988907	12.86376654
14.62949754	1.815574493	2.856509857	11.81732574	12.29248336
14.6394875	1.499581604	2.697989502	11.06319397	11.48573694
14.6494785	1.184037781	2.626138916	10.3421434	10.73585028
14.6594695	1.092577972	2.594704285	9.881700897	10.2749321
14.6694605	1.136736145	2.659519501	9.586215363	10.01302841
14.6794515	1.140328674	2.768492889	9.279802551	9.75087882
14.6894425	1.061143341	2.915337524	8.942254486	9.465153637
14.6994335	1.024469604	2.996169434	8.627758484	9.190472551
14.7094245	1.022523651	2.973865814	8.292904816	8.869143295
14.7194155	1.035696259	2.900817719	8.043822784	8.613390457
14.7294065	1.018182678	2.797981567	7.945177917	8.484765698
14.7393965	0.986149292	2.732567596	7.951315155	8.465390055
14.7493875	0.968635712	2.675835571	8.063432007	8.550864686
14.7593785	1.07880661	2.66430954	8.210126953	8.698767362
14.7693695	1.233435059	2.737507324	8.368946686	8.891264085
14.7793605	1.372944946	2.833757172	8.530760193	9.093350703
14.7893515	1.485061798	2.934647369	8.775351563	9.371465135
14.7993425	1.575473785	2.984643402	9.053024139	9.661648925
14.8093335	1.627415771	2.987487488	9.32321228	9.924507585
14.8193245	1.638193359	2.833757172	9.435778198	9.987380407
14.8293155	1.513951721	2.67718277	9.567055206	10.04927374
14.8393055	1.355730743	2.628084869	9.593699799	10.03911907
14.8492965	1.285077667	2.545756073	9.442214813	9.863453714
14.8592875	0.957858124	2.623444519	9.175319824	9.590956532
14.8692785	0.542771301	2.808759155	9.090296631	9.529807003
14.8792695	0.650996246	2.867586823	9.055119781	9.520611564
14.8892605	1.078357544	2.814297638	8.989406433	9.481168399
14.8992515	1.214723969	2.789149933	8.896000671	9.401794489
14.9092425	1.046324158	2.960244141	8.778195648	9.32279778
14.9192335	0.767154694	3.165617065	8.684640198	9.275377787
14.9292245	0.630189514	3.315006409	8.654702454	9.289256207
14.9392155	0.660276947	3.43071579	8.691525879	9.36741152
14.9492055	0.696800995	3.536845093	8.792715454	9.502981106
14.9591965	0.733025665	3.578458557	8.942404175	9.659673115
14.9691875	0.710422668	3.566932526	9.112899628	9.811862598
14.9791785	0.683927765	3.52546875	9.221124573	9.895747848
14.9891695	0.698297882	3.475772095	9.238787842	9.895646132
14.9991605	0.709374847	3.487747192	9.252259827	9.913218703
15.0091515	0.687071228	3.516637115	9.296717377	9.963320604
15.0191425	0.672401733	3.557502136	9.249864807	9.933173938
15.0291335	0.647852783	3.566333771	9.137448578	9.83012799
15.0391245	0.646056519	3.528163147	8.931027832	9.624374388
15.0491155	0.641565857	3.546874237	8.715176697	9.431130815
15.0591055	0.592318268	3.599864044	8.483608246	9.234796746
15.0690965	0.550854492	3.659140778	8.337961121	9.122189844
15.0790875	0.554896088	3.683090973	8.170609131	8.979527958
15.0890785	0.543519745	3.719615021	8.068671112	8.901370857
15.0990695	0.528550873	3.818559265	8.089477844	8.961049753
15.1090605	0.518970795	3.815415802	8.095016327	8.964151815
15.1190515	0.458346863	3.824846191	8.111332397	8.979601522
15.1290425	0.417032776	3.873495026	8.139623566	9.023932172
15.1390335	0.41299118	3.914360046	8.145611115	9.046753933
15.1490245	0.396824799	3.93262207	8.13558197	9.044925664
15.1590145	0.337697754	3.977678375	8.185278625	9.106851882
15.1690055	0.28785141	4.026776276	8.317603455	9.245556383
15.1789965	0.230820007	4.056115265	8.465645599	9.39002153
15.1889875	0.176183624	4.065545654	8.661438446	9.569755383
15.1989785	0.196391602	4.067790985	8.849597168	9.741707407
15.2089695	0.214803314	4.047583008	8.989256744	9.860821745
15.2189605	0.230670319	4.032763824	9.079219666	9.937234152
15.2289515	0.256865845	4.030069427	9.136849823	9.989467671
15.2389425	0.315543823	4.040397949	9.186247101	10.04049398
15.2489335	0.181422729	4.118984528	9.389674072	10.25499522
15.2589245	0.079335022	4.183350677	9.775870972	10.63364332
15.2689145	0.034278717	4.213737488	10.2586171	11.09035542
15.2789055	0.058079224	4.148772583	10.69630692	11.47286663
15.2888965	0.023800507	4.035757599	10.91994186	11.64186567
15.2988875	0.04326004	3.931723938	10.97263229	11.65585621
15.3088785	0.138611755	3.813469849	10.71217392	11.37156258
15.3188695	0.096100159	3.764521637	10.14395554	10.82038319
15.3288605	-0.037721558	3.756438446	9.621691589	10.32904651
15.3388515	-0.025297394	3.810476074	9.192833405	9.951309154
15.3488425	-0.126187592	3.910019073	8.98865799	9.803068138
15.3588335	-0.252674561	3.992198181	8.975635071	9.826673683
15.3688235	-0.441432037	4.101770325	9.099577332	9.991080505
15.3788145	-0.577648773	4.092339935	9.289532318	10.16741535
15.3888055	-0.558039551	3.898493042	9.599837036	10.37624823
15.3987965	-0.455353088	3.653153229	10.09425888	10.74462365
15.4087875	-0.383502502	3.381917267	10.95466965	11.4712347
15.4187785	-0.259859619	3.128943329	11.83184555	12.24133908
15.4287695	-0.197439423	2.88659729	12.24768082	12.58479684
15.4387605	-0.270188141	2.691552887	12.19993011	12.49622957
15.4487515	-0.381855927	2.537223816	11.64024399	11.91967276
15.4587425	-0.531394958	2.254611511	10.76306808	11.00950899
15.4687335	-0.548160095	1.976639557	9.898316345	10.10862255
15.4787235	-0.641715546	2.005379791	9.221873016	9.459190709
15.4887145	-0.751886444	2.142195282	8.837322693	9.124286615
15.4987055	-0.81325882	2.283501434	8.60246109	8.937455204
15.5086965	-0.991388397	2.361938324	8.545729065	8.921383797
15.5186875	-1.121018829	2.270777893	8.491990814	8.861547463
15.5286785	-1.178948364	2.253414001	8.340655518	8.719766532
15.5386695	-1.205592957	2.407743073	8.281977539	8.708721665
15.5486605	-1.243015137	2.582280121	8.263865204	8.746697969
15.5586515	-1.30468689	2.675835571	8.182883606	8.707576471
15.5686425	-1.21457428	2.764451294	8.16956131	8.709713751
15.5786335	-1.089733887	2.874622192	8.056995392	8.623580894
15.5886235	-1.024918671	2.887345734	7.839647369	8.417083494
15.5986145	-0.931812286	2.746039581	7.688012695	8.2167236
15.6086055	-0.804876251	2.591860199	7.7237883	8.186725277
15.6185965	-0.823437653	2.997666321	7.95311142	8.539088604
15.6285875	-1.255588989	3.40257431	8.130492554	8.902748161
15.63857888	-1.448986816	3.683689728	8.355923767	9.246112416
15.64856988	-1.242117004	3.789819031	8.580456848	9.46202001
15.65856088	-1.019380188	3.752995605	8.746461639	9.572079356
15.66855188	-0.817599792	3.727698212	8.937763824	9.718427113
15.67854288	-0.576750641	3.673061829	9.170230408	9.895309506
15.68853288	-0.501457214	3.598965912	9.333241425	10.01565826
15.69852388	-0.532891846	3.479214935	9.446555786	10.08098837
15.70851488	-0.605640564	3.339255981	9.588161316	10.17105051
15.71850588	-0.716559906	3.252436523	9.776170349	10.32788982
15.72849688	-0.818348236	3.14750473	9.816436615	10.341127
15.73848788	-0.944984894	3.108136597	9.651479645	10.18354402
15.74847888	-1.092278595	3.092269592	9.302704926	9.863849284
15.75846987	-1.146016846	3.173999634	8.832832031	9.455503687
15.76846087	-1.203197937	3.36395462	8.366401978	9.097283002
15.77845187	-1.190175018	3.604055328	8.013735352	8.867112589
15.78844287	-1.076411591	3.894301758	7.848628693	8.827526293
15.79843288	-0.918939056	4.090244293	7.78111908	8.838572368
15.80842388	-0.720302124	4.185296631	7.816894684	8.896032011
15.81841488	-0.633183289	4.204307098	7.96822998	9.031600538
15.82840588	-0.694106598	4.167783051	8.224946136	9.246725825
15.83839688	-0.725690918	4.098626862	8.434210968	9.40538591
15.84838788	-0.72658905	3.955973511	8.525371399	9.426537835
15.85837888	-0.840801544	3.874842224	8.68673584	9.548860092
15.86836988	-0.956959991	3.921694794	8.883576508	9.757735088
15.87836088	-1.009201355	3.935615845	8.994795227	9.869848055
15.88835188	-0.967887268	3.966900787	8.992849274	9.876459167
15.89834288	-1.011746063	3.981121216	8.827892303	9.736767367
15.90833287	-1.029858398	4.061204681	8.641829224	9.603916082
15.91832387	-0.96414505	4.168681183	8.583151245	9.59051426
15.92831487	-0.81909668	4.27660675	8.658145294	9.691427377
15.93830587	-0.760269012	4.400249634	8.838669891	9.902640621
15.94829687	-0.765807495	4.454736328	9.04239624	10.10920702
15.95828788	-0.753832397	4.431983643	9.105115814	10.1545003
15.96827888	-0.763861542	4.425397339	9.102571106	10.15009492
15.97826988	-0.811911621	4.448299713	8.991651764	10.06460989
15.98826088	-0.894988861	4.514761505	8.860075378	9.984238189
15.99825188	-0.908161469	4.52239563	8.837921448	9.96923643
16.00824288	-0.886456604	4.5095224	8.925639038	10.03935405
16.01823288	-0.957858124	4.522096252	8.969647522	10.0906602
16.02822388	-0.985700226	4.526586914	9.054820404	10.17110449
16.03821488	-0.944086761	4.431983643	9.179960175	10.23745318
16.04820588	-0.973874817	4.236190796	9.325158234	10.2884557
16.05819688	-1.080153809	4.111799469	9.476643219	10.3865487
16.06818788	-1.323996735	4.060905304	9.654174042	10.55684591
16.07817888	-1.462309113	4.089046783	9.848769379	10.76368477
16.08816988	-1.358574829	4.032614136	10.12943573	10.98695456
16.09816088	-1.229692841	4.022435303	10.14545242	10.98282
16.10815187	-1.154549103	4.106560364	9.842632141	10.72726569
16.11814188	-1.068927155	4.256847839	9.322164459	10.30369395
16.12813288	-0.997525635	4.375251617	8.673413544	9.765551014
16.13812388	-0.958756256	4.486470337	8.102051697	9.310793271
16.14811488	-0.919388123	4.578828278	7.832162933	9.11886611
16.15810588	-0.863254852	4.593647461	8.187374268	9.427613873
16.16809688	-0.731528778	4.614903259	9.000184021	10.14079774
16.17808788	-0.678988037	4.572241974	9.840087433	10.87169454
16.18807888	-0.672252045	4.371958466	10.62056442	11.50488298
16.19806988	-0.536035309	3.944746857	11.01798798	11.71513639
16.20806088	-0.425265656	3.368145905	10.67145859	11.19845017
16.21805188	-0.60144928	3.250191193	11.09088638	11.57295316
16.22804188	-0.653091888	3.47053299	11.79651901	12.31377233
16.23803288	-0.547112274	3.599564667	11.82675613	12.37450437
16.24802387	-0.439336395	3.451821899	11.0575058	11.59208891
